submission_id,QUD,RT,age,answer_category,comments,completions,condition,correct,education,endTime,experiment_id,gender,glb_condition,languages,min_chars,number,option1,option2,optionLeft,optionRight,picture,prolific_id,question,response,sentence_fragment,sentence_nr,startDate,startTime,timeSpent,trial_number,trial_type,trigger
6877,NA,4328,53,NA,,NA,NA,12,Higher Degree,1553867362216,46,female,cooperative,english,0,NA,NA,NA,NA,NA,images/Plate1.png,59e773565de9b000017ed296,Please type the number you see in the picture above into the textbox. Please write 'none' if you do not see anything?,12,NA,NA,Fri Mar 29 2019 13:32:08 GMT+0000 (Greenwich Mean Time),1553866328087,17.235483333333335,1,color_blindness_test,NA
6877,NA,6613,53,NA,,NA,NA,45,Higher Degree,1553867362216,46,female,cooperative,english,0,NA,NA,NA,NA,NA,images/Plate9.png,59e773565de9b000017ed296,Please type the number you see in the picture above into the textbox. Please write 'none' if you do not see anything?,45,NA,NA,Fri Mar 29 2019 13:32:08 GMT+0000 (Greenwich Mean Time),1553866328087,17.235483333333335,2,color_blindness_test,NA
6877,NA,17264,53,NA,,NA,NA,73,Higher Degree,1553867362216,46,female,cooperative,english,0,NA,NA,NA,NA,NA,images/Plate13.png,59e773565de9b000017ed296,Please type the number you see in the picture above into the textbox. Please write 'none' if you do not see anything?,73,NA,NA,Fri Mar 29 2019 13:32:08 GMT+0000 (Greenwich Mean Time),1553866328087,17.235483333333335,3,color_blindness_test,NA
6877,NA,9328,53,NA,,NA,NA,NA,Higher Degree,1553867362216,46,female,cooperative,english,NA,NA,red,green,NA,NA,NA,59e773565de9b000017ed296,Which color is the box surrounding the bonus card?,green,NA,NA,Fri Mar 29 2019 13:32:08 GMT+0000 (Greenwich Mean Time),1553866328087,17.235483333333335,1,comprehension_test,NA
6877,NA,5021,53,NA,,NA,NA,NA,Higher Degree,1553867362216,46,female,cooperative,english,NA,NA,yes,no,NA,NA,NA,59e773565de9b000017ed296,Are you allowed to select words that make the whole descriptions false?,yes,NA,NA,Fri Mar 29 2019 13:32:08 GMT+0000 (Greenwich Mean Time),1553866328087,17.235483333333335,2,comprehension_test,NA
6877,NA,6062,53,NA,,NA,NA,NA,Higher Degree,1553867362216,46,female,cooperative,english,NA,NA,help,mislead,NA,NA,NA,59e773565de9b000017ed296,"Is your goal to help the guesser find the bonus card, or should you mislead the guesser to pick the other card instead?",help,NA,NA,Fri Mar 29 2019 13:32:08 GMT+0000 (Greenwich Mean Time),1553866328087,17.235483333333335,3,comprehension_test,NA
6877,NA,9175,53,semantic_bonus|semantic_no-bonus|false|false|contradiction|nonsense,,bottles|bikes|yellow|blue|objects|clowns,all,NA,Higher Degree,1553867362216,46,female,cooperative,english,NA,36,NA,NA,NA,NA,images/36ALL.PNG,59e773565de9b000017ed296,NA,semantic_bonus,On the bonus card all of the objects are,NA,Fri Mar 29 2019 13:32:08 GMT+0000 (Greenwich Mean Time),1553866328087,17.235483333333335,1,sentence_completion,NA
6877,NA,4894,53,semantic_bonus|semantic_no-bonus|false|false|contradiction|nonsense,,shoes|trophies|pink|yellow|objects|clowns,all,NA,Higher Degree,1553867362216,46,female,cooperative,english,NA,30,NA,NA,NA,NA,images/30ALL.PNG,59e773565de9b000017ed296,NA,semantic_bonus,On the bonus card all of the objects are,NA,Fri Mar 29 2019 13:32:08 GMT+0000 (Greenwich Mean Time),1553866328087,17.235483333333335,2,sentence_completion,NA
6877,NA,11217,53,pragmatic_bonus|pragmatic_no-bonus|false|false|tautology|nonsense,,pumpkins|blue|mugs|green|objects|clowns,number,NA,Higher Degree,1553867362216,46,female,cooperative,english,NA,01,NA,NA,NA,NA,images/01NUM.PNG,59e773565de9b000017ed296,NA,pragmatic_bonus,On the bonus card five of the objects are,NA,Fri Mar 29 2019 13:32:08 GMT+0000 (Greenwich Mean Time),1553866328087,17.235483333333335,3,sentence_completion,NA
6877,NA,8685,53,pragmatic_bonus|pragmatic_no-bonus|false|false|tautology|nonsense,,green|apples|guitars|yellow|objects|clowns,ad_hoc,NA,Higher Degree,1553867362216,46,female,cooperative,english,NA,17,NA,NA,NA,NA,images/17HOC.PNG,59e773565de9b000017ed296,NA,pragmatic_no-bonus,On the bonus card the objects in the middle row are,NA,Fri Mar 29 2019 13:32:08 GMT+0000 (Greenwich Mean Time),1553866328087,17.235483333333335,4,sentence_completion,NA
6877,NA,5351,53,pragmatic_bonus|pragmatic_no-bonus|false|false|tautology|nonsense,,yellow|forks|blue|leaves|objects|clowns,ad_hoc,NA,Higher Degree,1553867362216,46,female,cooperative,english,NA,15,NA,NA,NA,NA,images/15HOC.PNG,59e773565de9b000017ed296,NA,pragmatic_no-bonus,On the bonus card the objects in the bottom row are,NA,Fri Mar 29 2019 13:32:08 GMT+0000 (Greenwich Mean Time),1553866328087,17.235483333333335,5,sentence_completion,NA
6877,NA,6973,53,semantic_bonus|semantic_no-bonus|false|false|contradiction|nonsense,,pans|jars|yellow|blue|objects|clowns,none,NA,Higher Degree,1553867362216,46,female,cooperative,english,NA,24,NA,NA,NA,NA,images/24NONE.PNG,59e773565de9b000017ed296,NA,semantic_bonus,On the bonus card none of the objects are,NA,Fri Mar 29 2019 13:32:08 GMT+0000 (Greenwich Mean Time),1553866328087,17.235483333333335,6,sentence_completion,NA
6877,NA,5117,53,semantic_bonus|semantic_no-bonus|false|false|contradiction|nonsense,,drums|tents|green|yellow|objects|clowns,all,NA,Higher Degree,1553867362216,46,female,cooperative,english,NA,32,NA,NA,NA,NA,images/32ALL.PNG,59e773565de9b000017ed296,NA,semantic_bonus,On the bonus card all of the objects are,NA,Fri Mar 29 2019 13:32:08 GMT+0000 (Greenwich Mean Time),1553866328087,17.235483333333335,7,sentence_completion,NA
6877,NA,7110,53,semantic_bonus|semantic_no-bonus|false|false|contradiction|nonsense,,blue|pink|trucks|saxophones|objects|clowns,none,NA,Higher Degree,1553867362216,46,female,cooperative,english,NA,23,NA,NA,NA,NA,images/23NONE.PNG,59e773565de9b000017ed296,NA,semantic_bonus,On the bonus card none of the objects are,NA,Fri Mar 29 2019 13:32:08 GMT+0000 (Greenwich Mean Time),1553866328087,17.235483333333335,8,sentence_completion,NA
6877,NA,4691,53,semantic_bonus|semantic_no-bonus|false|false|contradiction|nonsense,,cars|sofas|blue|pink|objects|clowns,none,NA,Higher Degree,1553867362216,46,female,cooperative,english,NA,26,NA,NA,NA,NA,images/26NONE.PNG,59e773565de9b000017ed296,NA,semantic_bonus,On the bonus card none of the objects are,NA,Fri Mar 29 2019 13:32:08 GMT+0000 (Greenwich Mean Time),1553866328087,17.235483333333335,9,sentence_completion,NA
6877,NA,9097,53,pragmatic_bonus|pragmatic_no-bonus|false|false|tautology|nonsense,,flowers|blue|yellow|scissors|objects|clowns,most,NA,Higher Degree,1553867362216,46,female,cooperative,english,NA,12,NA,NA,NA,NA,images/12MOST.PNG,59e773565de9b000017ed296,NA,pragmatic_no-bonus,On the bonus card most of the objects are,NA,Fri Mar 29 2019 13:32:08 GMT+0000 (Greenwich Mean Time),1553866328087,17.235483333333335,10,sentence_completion,NA
6877,NA,4712,53,semantic_bonus|semantic_no-bonus|false|false|contradiction|nonsense,,green|yellow|brooms|brushes|objects|clowns,all,NA,Higher Degree,1553867362216,46,female,cooperative,english,NA,29,NA,NA,NA,NA,images/29ALL.PNG,59e773565de9b000017ed296,NA,semantic_bonus,On the bonus card all of the objects are,NA,Fri Mar 29 2019 13:32:08 GMT+0000 (Greenwich Mean Time),1553866328087,17.235483333333335,11,sentence_completion,NA
6877,NA,5135,53,semantic_bonus|semantic_no-bonus|false|false|contradiction|nonsense,,blue|green|envelopes|helicopters|objects|clowns,none,NA,Higher Degree,1553867362216,46,female,cooperative,english,NA,25,NA,NA,NA,NA,images/25NONE.PNG,59e773565de9b000017ed296,NA,semantic_bonus,On the bonus card none of the objects are,NA,Fri Mar 29 2019 13:32:08 GMT+0000 (Greenwich Mean Time),1553866328087,17.235483333333335,12,sentence_completion,NA
6877,NA,4493,53,semantic_bonus|semantic_no-bonus|false|false|contradiction|nonsense,,umbrellas|rockets|green|pink|objects|clowns,all,NA,Higher Degree,1553867362216,46,female,cooperative,english,NA,28,NA,NA,NA,NA,images/28ALL.PNG,59e773565de9b000017ed296,NA,semantic_bonus,On the bonus card all of the objects are,NA,Fri Mar 29 2019 13:32:08 GMT+0000 (Greenwich Mean Time),1553866328087,17.235483333333335,13,sentence_completion,NA
6877,NA,7141,53,pragmatic_bonus|pragmatic_no-bonus|false|false|tautology|nonsense,,beds|blue|donuts|green|objects|clowns,most,NA,Higher Degree,1553867362216,46,female,cooperative,english,NA,10,NA,NA,NA,NA,images/10MOST.PNG,59e773565de9b000017ed296,NA,pragmatic_no-bonus,On the bonus card most of the objects are,NA,Fri Mar 29 2019 13:32:08 GMT+0000 (Greenwich Mean Time),1553866328087,17.235483333333335,14,sentence_completion,NA
6877,NA,21572,53,pragmatic_bonus|pragmatic_no-bonus|false|false|tautology|nonsense,,crowns|blue|pink|pistols|objects|clowns,ad_hoc,NA,Higher Degree,1553867362216,46,female,cooperative,english,NA,14,NA,NA,NA,NA,images/14HOC.PNG,59e773565de9b000017ed296,NA,pragmatic_bonus,On the bonus card the objects in the middle row are,NA,Fri Mar 29 2019 13:32:08 GMT+0000 (Greenwich Mean Time),1553866328087,17.235483333333335,15,sentence_completion,NA
6877,NA,10207,53,pragmatic_bonus|pragmatic_no-bonus|false|false|tautology|nonsense,,lamps|yellow|green|phones|objects|clowns,most,NA,Higher Degree,1553867362216,46,female,cooperative,english,NA,08,NA,NA,NA,NA,images/08MOST.PNG,59e773565de9b000017ed296,NA,pragmatic_no-bonus,On the bonus card most of the objects are,NA,Fri Mar 29 2019 13:32:08 GMT+0000 (Greenwich Mean Time),1553866328087,17.235483333333335,16,sentence_completion,NA
6877,NA,6654,53,pragmatic_bonus|pragmatic_no-bonus|false|false|tautology|nonsense,,bathtubs|pink|candles|yellow|objects|clowns,number,NA,Higher Degree,1553867362216,46,female,cooperative,english,NA,06,NA,NA,NA,NA,images/06NUM.PNG,59e773565de9b000017ed296,NA,pragmatic_bonus,On the bonus card six of the objects are,NA,Fri Mar 29 2019 13:32:08 GMT+0000 (Greenwich Mean Time),1553866328087,17.235483333333335,17,sentence_completion,NA
6877,NA,16906,53,semantic_bonus|semantic_no-bonus|false|false|contradiction|nonsense,,cakes|teapots|green|yellow|objects|clowns,none,NA,Higher Degree,1553867362216,46,female,cooperative,english,NA,20,NA,NA,NA,NA,images/20NONE.PNG,59e773565de9b000017ed296,NA,semantic_bonus,On the bonus card none of the objects are,NA,Fri Mar 29 2019 13:32:08 GMT+0000 (Greenwich Mean Time),1553866328087,17.235483333333335,18,sentence_completion,NA
6877,NA,19983,53,pragmatic_bonus|pragmatic_no-bonus|false|false|tautology|nonsense,,pineapples|pink|blue|socks|objects|clowns,number,NA,Higher Degree,1553867362216,46,female,cooperative,english,NA,02,NA,NA,NA,NA,images/02NUM.PNG,59e773565de9b000017ed296,NA,pragmatic_bonus,On the bonus card five of the objects are,NA,Fri Mar 29 2019 13:32:08 GMT+0000 (Greenwich Mean Time),1553866328087,17.235483333333335,19,sentence_completion,NA
6877,NA,3954,53,semantic_bonus|semantic_no-bonus|false|false|contradiction|nonsense,,yellow|pink|combs|irons|objects|clowns,all,NA,Higher Degree,1553867362216,46,female,cooperative,english,NA,33,NA,NA,NA,NA,images/33ALL.PNG,59e773565de9b000017ed296,NA,semantic_bonus,On the bonus card all of the objects are,NA,Fri Mar 29 2019 13:32:08 GMT+0000 (Greenwich Mean Time),1553866328087,17.235483333333335,20,sentence_completion,NA
6877,NA,9977,53,pragmatic_bonus|pragmatic_no-bonus|false|false|tautology|nonsense,,blue|kites|green|benches|objects|clowns,ad_hoc,NA,Higher Degree,1553867362216,46,female,cooperative,english,NA,13,NA,NA,NA,NA,images/13HOC.PNG,59e773565de9b000017ed296,NA,pragmatic_bonus,On the bonus card the objects in the top row are,NA,Fri Mar 29 2019 13:32:08 GMT+0000 (Greenwich Mean Time),1553866328087,17.235483333333335,21,sentence_completion,NA
6877,NA,5352,53,semantic_bonus|semantic_no-bonus|false|false|contradiction|nonsense,,pink|yellow|onions|rackets|objects|clowns,none,NA,Higher Degree,1553867362216,46,female,cooperative,english,NA,21,NA,NA,NA,NA,images/21NONE.PNG,59e773565de9b000017ed296,NA,semantic_bonus,On the bonus card none of the objects are,NA,Fri Mar 29 2019 13:32:08 GMT+0000 (Greenwich Mean Time),1553866328087,17.235483333333335,22,sentence_completion,NA
6877,NA,11009,53,pragmatic_bonus|pragmatic_no-bonus|false|false|tautology|nonsense,,pink|bells|yellow|hourglasses|objects|clowns,ad_hoc,NA,Higher Degree,1553867362216,46,female,cooperative,english,NA,18,NA,NA,NA,NA,images/18HOC.PNG,59e773565de9b000017ed296,NA,pragmatic_bonus,On the bonus card the objects in the bottom row are,NA,Fri Mar 29 2019 13:32:08 GMT+0000 (Greenwich Mean Time),1553866328087,17.235483333333335,23,sentence_completion,NA
6877,NA,4853,53,pragmatic_bonus|pragmatic_no-bonus|false|false|tautology|nonsense,,pink|keys|bowties|green|objects|clowns,most,NA,Higher Degree,1553867362216,46,female,cooperative,english,NA,07,NA,NA,NA,NA,images/07MOST.PNG,59e773565de9b000017ed296,NA,pragmatic_no-bonus,On the bonus card most of the objects are,NA,Fri Mar 29 2019 13:32:08 GMT+0000 (Greenwich Mean Time),1553866328087,17.235483333333335,24,sentence_completion,NA
6877,NA,8866,53,pragmatic_bonus|pragmatic_no-bonus|false|false|tautology|nonsense,,yellow|flags|pink|sandwiches|objects|clowns,most,NA,Higher Degree,1553867362216,46,female,cooperative,english,NA,09,NA,NA,NA,NA,images/09MOST.PNG,59e773565de9b000017ed296,NA,pragmatic_no-bonus,On the bonus card most of the objects are,NA,Fri Mar 29 2019 13:32:08 GMT+0000 (Greenwich Mean Time),1553866328087,17.235483333333335,25,sentence_completion,NA
6877,NA,4079,53,semantic_bonus|semantic_no-bonus|false|false|contradiction|nonsense,,blue|pink|feathers|vases|objects|clowns,all,NA,Higher Degree,1553867362216,46,female,cooperative,english,NA,35,NA,NA,NA,NA,images/35ALL.PNG,59e773565de9b000017ed296,NA,semantic_bonus,On the bonus card all of the objects are,NA,Fri Mar 29 2019 13:32:08 GMT+0000 (Greenwich Mean Time),1553866328087,17.235483333333335,26,sentence_completion,NA
6877,NA,7028,53,pragmatic_bonus|pragmatic_no-bonus|false|false|tautology|nonsense,,green|toasters|pink|boats|objects|clowns,number,NA,Higher Degree,1553867362216,46,female,cooperative,english,NA,04,NA,NA,NA,NA,images/04NUM.PNG,59e773565de9b000017ed296,NA,pragmatic_bonus,On the bonus card six of the objects are,NA,Fri Mar 29 2019 13:32:08 GMT+0000 (Greenwich Mean Time),1553866328087,17.235483333333335,27,sentence_completion,NA
6877,NA,5712,53,pragmatic_bonus|pragmatic_no-bonus|false|false|tautology|nonsense,,green|pears|yellow|buckets|objects|clowns,number,NA,Higher Degree,1553867362216,46,female,cooperative,english,NA,05,NA,NA,NA,NA,images/05NUM.PNG,59e773565de9b000017ed296,NA,pragmatic_bonus,On the bonus card six of the objects are,NA,Fri Mar 29 2019 13:32:08 GMT+0000 (Greenwich Mean Time),1553866328087,17.235483333333335,28,sentence_completion,NA
6877,NA,5093,53,semantic_bonus|semantic_no-bonus|false|false|contradiction|nonsense,,green|pink|mail boxes|light bulbs|objects|clowns,none,NA,Higher Degree,1553867362216,46,female,cooperative,english,NA,19,NA,NA,NA,NA,images/19NONE.PNG,59e773565de9b000017ed296,NA,semantic_bonus,On the bonus card none of the objects are,NA,Fri Mar 29 2019 13:32:08 GMT+0000 (Greenwich Mean Time),1553866328087,17.235483333333335,29,sentence_completion,NA
6877,NA,5372,53,pragmatic_bonus|pragmatic_no-bonus|false|false|tautology|nonsense,,blue|spoons|saws|yellow|objects|clowns,number,NA,Higher Degree,1553867362216,46,female,cooperative,english,NA,03,NA,NA,NA,NA,images/03NUM.PNG,59e773565de9b000017ed296,NA,pragmatic_bonus,On the bonus card five of the objects are,NA,Fri Mar 29 2019 13:32:08 GMT+0000 (Greenwich Mean Time),1553866328087,17.235483333333335,30,sentence_completion,NA
6877,NA,5790,53,pragmatic_bonus|pragmatic_no-bonus|false|false|tautology|nonsense,,vases|pink|green|diamonds|objects|clowns,ad_hoc,NA,Higher Degree,1553867362216,46,female,cooperative,english,NA,16,NA,NA,NA,NA,images/16HOC.PNG,59e773565de9b000017ed296,NA,pragmatic_bonus,On the bonus card the objects in the top row are,NA,Fri Mar 29 2019 13:32:08 GMT+0000 (Greenwich Mean Time),1553866328087,17.235483333333335,31,sentence_completion,NA
6877,NA,5130,53,semantic_bonus|semantic_no-bonus|false|false|contradiction|nonsense,,pink|green|TVs|fans|objects|clowns,all,NA,Higher Degree,1553867362216,46,female,cooperative,english,NA,31,NA,NA,NA,NA,images/31ALL.PNG,59e773565de9b000017ed296,NA,semantic_bonus,On the bonus card all of the objects are,NA,Fri Mar 29 2019 13:32:08 GMT+0000 (Greenwich Mean Time),1553866328087,17.235483333333335,32,sentence_completion,NA
6877,NA,5182,53,pragmatic_bonus|pragmatic_no-bonus|false|false|tautology|nonsense,,pink|books|hammers|blue|objects|clowns,most,NA,Higher Degree,1553867362216,46,female,cooperative,english,NA,11,NA,NA,NA,NA,images/11MOST.PNG,59e773565de9b000017ed296,NA,pragmatic_no-bonus,On the bonus card most of the objects are,NA,Fri Mar 29 2019 13:32:08 GMT+0000 (Greenwich Mean Time),1553866328087,17.235483333333335,33,sentence_completion,NA
6877,NA,4757,53,semantic_bonus|semantic_no-bonus|false|false|contradiction|nonsense,,blue|yellow|acorns|boots|objects|clowns,none,NA,Higher Degree,1553867362216,46,female,cooperative,english,NA,27,NA,NA,NA,NA,images/27NONE.PNG,59e773565de9b000017ed296,NA,semantic_bonus,On the bonus card none of the objects are,NA,Fri Mar 29 2019 13:32:08 GMT+0000 (Greenwich Mean Time),1553866328087,17.235483333333335,34,sentence_completion,NA
6877,NA,5981,53,semantic_bonus|semantic_no-bonus|false|false|contradiction|nonsense,,kettles|bananas|blue|green|objects|clowns,none,NA,Higher Degree,1553867362216,46,female,cooperative,english,NA,22,NA,NA,NA,NA,images/22NONE.PNG,59e773565de9b000017ed296,NA,semantic_bonus,On the bonus card none of the objects are,NA,Fri Mar 29 2019 13:32:08 GMT+0000 (Greenwich Mean Time),1553866328087,17.235483333333335,35,sentence_completion,NA
6877,NA,4935,53,semantic_bonus|semantic_no-bonus|false|false|contradiction|nonsense,,trumpets|carrots|green|blue|objects|clowns,all,NA,Higher Degree,1553867362216,46,female,cooperative,english,NA,34,NA,NA,NA,NA,images/34ALL.PNG,59e773565de9b000017ed296,NA,semantic_bonus,On the bonus card all of the objects are,NA,Fri Mar 29 2019 13:32:08 GMT+0000 (Greenwich Mean Time),1553866328087,17.235483333333335,36,sentence_completion,NA
6877,NA,20179,53,NA,,NA,NA,NA,Higher Degree,1553867362216,46,female,cooperative,english,NA,NA,NA,NA,0%,100%,NA,59e773565de9b000017ed296,NA,90,NA,NA,Fri Mar 29 2019 13:32:08 GMT+0000 (Greenwich Mean Time),1553866328087,17.235483333333335,1,performance_rating,NA
6877,,8734,53,NA,,NA,bizarre,NA,Higher Degree,1553867362216,46,female,cooperative,english,NA,NA,true,false,NA,NA,NA,59e773565de9b000017ed296,The earth owns seven books.,false,NA,5,Fri Mar 29 2019 13:32:08 GMT+0000 (Greenwich Mean Time),1553866328087,17.235483333333335,1,truth_value_judgements,number
6877,,7706,53,NA,,NA,implicature,NA,Higher Degree,1553867362216,46,female,cooperative,english,NA,NA,true,false,NA,NA,NA,59e773565de9b000017ed296,Most pigeons are birds.,true,NA,4,Fri Mar 29 2019 13:32:08 GMT+0000 (Greenwich Mean Time),1553866328087,17.235483333333335,2,truth_value_judgements,most
6877,,5796,53,NA,,NA,bizarre,NA,Higher Degree,1553867362216,46,female,cooperative,english,NA,NA,true,false,NA,NA,NA,59e773565de9b000017ed296,All garages sing.,false,NA,4,Fri Mar 29 2019 13:32:08 GMT+0000 (Greenwich Mean Time),1553866328087,17.235483333333335,3,truth_value_judgements,all
6877,,5781,53,NA,,NA,bizarre,NA,Higher Degree,1553867362216,46,female,cooperative,english,NA,NA,true,false,NA,NA,NA,59e773565de9b000017ed296,A week consists of five people.,false,NA,4,Fri Mar 29 2019 13:32:08 GMT+0000 (Greenwich Mean Time),1553866328087,17.235483333333335,4,truth_value_judgements,number
6877,,5916,53,NA,,NA,bizarre,NA,Higher Degree,1553867362216,46,female,cooperative,english,NA,NA,true,false,NA,NA,NA,59e773565de9b000017ed296,Some stores are made of bubbles.,false,NA,4,Fri Mar 29 2019 13:32:08 GMT+0000 (Greenwich Mean Time),1553866328087,17.235483333333335,5,truth_value_judgements,some
6877,,5875,53,NA,,NA,true,NA,Higher Degree,1553867362216,46,female,cooperative,english,NA,NA,true,false,NA,NA,NA,59e773565de9b000017ed296,Some dresses have pockets.,true,NA,2,Fri Mar 29 2019 13:32:08 GMT+0000 (Greenwich Mean Time),1553866328087,17.235483333333335,6,truth_value_judgements,some
6877,,6174,53,NA,,NA,implicature,NA,Higher Degree,1553867362216,46,female,cooperative,english,NA,NA,true,false,NA,NA,NA,59e773565de9b000017ed296,Some owls are birds.,true,NA,3,Fri Mar 29 2019 13:32:08 GMT+0000 (Greenwich Mean Time),1553866328087,17.235483333333335,7,truth_value_judgements,some
6877,,5757,53,NA,,NA,true,NA,Higher Degree,1553867362216,46,female,cooperative,english,NA,NA,true,false,NA,NA,NA,59e773565de9b000017ed296,Most birds can fly.,true,NA,2,Fri Mar 29 2019 13:32:08 GMT+0000 (Greenwich Mean Time),1553866328087,17.235483333333335,8,truth_value_judgements,most
6877,,5868,53,NA,,NA,true,NA,Higher Degree,1553867362216,46,female,cooperative,english,NA,NA,true,false,NA,NA,NA,59e773565de9b000017ed296,Some tools are made of wood..,true,NA,3,Fri Mar 29 2019 13:32:08 GMT+0000 (Greenwich Mean Time),1553866328087,17.235483333333335,9,truth_value_judgements,some
6877,,5820,53,NA,,NA,bizarre,NA,Higher Degree,1553867362216,46,female,cooperative,english,NA,NA,true,false,NA,NA,NA,59e773565de9b000017ed296,Some books are good to eat.,false,NA,3,Fri Mar 29 2019 13:32:08 GMT+0000 (Greenwich Mean Time),1553866328087,17.235483333333335,10,truth_value_judgements,some
6877,,6119,53,NA,,NA,true,NA,Higher Degree,1553867362216,46,female,cooperative,english,NA,NA,true,false,NA,NA,NA,59e773565de9b000017ed296,Monkeys have five fingers on each hand.,false,NA,2,Fri Mar 29 2019 13:32:08 GMT+0000 (Greenwich Mean Time),1553866328087,17.235483333333335,11,truth_value_judgements,number
6877,,6105,53,NA,,NA,true,NA,Higher Degree,1553867362216,46,female,cooperative,english,NA,NA,true,false,NA,NA,NA,59e773565de9b000017ed296,Cats have four legs.,true,NA,4,Fri Mar 29 2019 13:32:08 GMT+0000 (Greenwich Mean Time),1553866328087,17.235483333333335,12,truth_value_judgements,number
6877,,10821,53,NA,,NA,true,NA,Higher Degree,1553867362216,46,female,cooperative,english,NA,NA,true,false,NA,NA,NA,59e773565de9b000017ed296,Most people know more than one language.,true,NA,4,Fri Mar 29 2019 13:32:08 GMT+0000 (Greenwich Mean Time),1553866328087,17.235483333333335,13,truth_value_judgements,most
6877,,5969,53,NA,,NA,implicature,NA,Higher Degree,1553867362216,46,female,cooperative,english,NA,NA,true,false,NA,NA,NA,59e773565de9b000017ed296,Some ants are insects.,true,NA,4,Fri Mar 29 2019 13:32:08 GMT+0000 (Greenwich Mean Time),1553866328087,17.235483333333335,14,truth_value_judgements,some
6877,,6072,53,NA,,NA,true,NA,Higher Degree,1553867362216,46,female,cooperative,english,NA,NA,true,false,NA,NA,NA,59e773565de9b000017ed296,Most days in a year are working days.,true,NA,3,Fri Mar 29 2019 13:32:08 GMT+0000 (Greenwich Mean Time),1553866328087,17.235483333333335,15,truth_value_judgements,most
6877,,5750,53,NA,,NA,bizarre,NA,Higher Degree,1553867362216,46,female,cooperative,english,NA,NA,true,false,NA,NA,NA,59e773565de9b000017ed296,All chairs tell time.,false,NA,3,Fri Mar 29 2019 13:32:08 GMT+0000 (Greenwich Mean Time),1553866328087,17.235483333333335,16,truth_value_judgements,all
6877,,7198,53,NA,,NA,implicature,NA,Higher Degree,1553867362216,46,female,cooperative,english,NA,NA,true,false,NA,NA,NA,59e773565de9b000017ed296,Some cats are mammals.,true,NA,5,Fri Mar 29 2019 13:32:08 GMT+0000 (Greenwich Mean Time),1553866328087,17.235483333333335,17,truth_value_judgements,some
6877,,5664,53,NA,,NA,bizarre,NA,Higher Degree,1553867362216,46,female,cooperative,english,NA,NA,true,false,NA,NA,NA,59e773565de9b000017ed296,The moon has two ears.,false,NA,1,Fri Mar 29 2019 13:32:08 GMT+0000 (Greenwich Mean Time),1553866328087,17.235483333333335,18,truth_value_judgements,number
6877,,6150,53,NA,,NA,true,NA,Higher Degree,1553867362216,46,female,cooperative,english,NA,NA,true,false,NA,NA,NA,59e773565de9b000017ed296,All eagles are birds.,true,NA,8,Fri Mar 29 2019 13:32:08 GMT+0000 (Greenwich Mean Time),1553866328087,17.235483333333335,19,truth_value_judgements,all
6877,,5639,53,NA,,NA,bizarre,NA,Higher Degree,1553867362216,46,female,cooperative,english,NA,NA,true,false,NA,NA,NA,59e773565de9b000017ed296,Some children are made of feathers.,false,NA,5,Fri Mar 29 2019 13:32:08 GMT+0000 (Greenwich Mean Time),1553866328087,17.235483333333335,20,truth_value_judgements,some
6877,,6434,53,NA,,NA,implicature,NA,Higher Degree,1553867362216,46,female,cooperative,english,NA,NA,true,false,NA,NA,NA,59e773565de9b000017ed296,Monkeys have three bones.,true,NA,5,Fri Mar 29 2019 13:32:08 GMT+0000 (Greenwich Mean Time),1553866328087,17.235483333333335,21,truth_value_judgements,number
6877,,6607,53,NA,,NA,implicature,NA,Higher Degree,1553867362216,46,female,cooperative,english,NA,NA,true,false,NA,NA,NA,59e773565de9b000017ed296,The universe contains three planets.,true,NA,3,Fri Mar 29 2019 13:32:08 GMT+0000 (Greenwich Mean Time),1553866328087,17.235483333333335,22,truth_value_judgements,number
6877,,5994,53,NA,,NA,true,NA,Higher Degree,1553867362216,46,female,cooperative,english,NA,NA,true,false,NA,NA,NA,59e773565de9b000017ed296,Some children are blond.,true,NA,4,Fri Mar 29 2019 13:32:08 GMT+0000 (Greenwich Mean Time),1553866328087,17.235483333333335,23,truth_value_judgements,some
6877,,5774,53,NA,,NA,true,NA,Higher Degree,1553867362216,46,female,cooperative,english,NA,NA,true,false,NA,NA,NA,59e773565de9b000017ed296,Humans have two eyes.,true,NA,5,Fri Mar 29 2019 13:32:08 GMT+0000 (Greenwich Mean Time),1553866328087,17.235483333333335,24,truth_value_judgements,number
6877,,5859,53,NA,,NA,implicature,NA,Higher Degree,1553867362216,46,female,cooperative,english,NA,NA,true,false,NA,NA,NA,59e773565de9b000017ed296,Most horses are mammals.,true,NA,2,Fri Mar 29 2019 13:32:08 GMT+0000 (Greenwich Mean Time),1553866328087,17.235483333333335,25,truth_value_judgements,most
6877,,6111,53,NA,,NA,implicature,NA,Higher Degree,1553867362216,46,female,cooperative,english,NA,NA,true,false,NA,NA,NA,59e773565de9b000017ed296,Most snakes are reptiles.,true,NA,3,Fri Mar 29 2019 13:32:08 GMT+0000 (Greenwich Mean Time),1553866328087,17.235483333333335,26,truth_value_judgements,most
6877,,5947,53,NA,,NA,bizarre,NA,Higher Degree,1553867362216,46,female,cooperative,english,NA,NA,true,false,NA,NA,NA,59e773565de9b000017ed296,Most motorcycles like music.,false,NA,3,Fri Mar 29 2019 13:32:08 GMT+0000 (Greenwich Mean Time),1553866328087,17.235483333333335,27,truth_value_judgements,most
6877,,5739,53,NA,,NA,bizarre,NA,Higher Degree,1553867362216,46,female,cooperative,english,NA,NA,true,false,NA,NA,NA,59e773565de9b000017ed296,Most chairs are hungry.,false,NA,2,Fri Mar 29 2019 13:32:08 GMT+0000 (Greenwich Mean Time),1553866328087,17.235483333333335,28,truth_value_judgements,most
6877,,5780,53,NA,,NA,bizarre,NA,Higher Degree,1553867362216,46,female,cooperative,english,NA,NA,true,false,NA,NA,NA,59e773565de9b000017ed296,Some fish are made of leaves.,false,NA,1,Fri Mar 29 2019 13:32:08 GMT+0000 (Greenwich Mean Time),1553866328087,17.235483333333335,29,truth_value_judgements,some
6877,,5805,53,NA,,NA,implicature,NA,Higher Degree,1553867362216,46,female,cooperative,english,NA,NA,true,false,NA,NA,NA,59e773565de9b000017ed296,Some lizards are reptiles.,true,NA,2,Fri Mar 29 2019 13:32:08 GMT+0000 (Greenwich Mean Time),1553866328087,17.235483333333335,30,truth_value_judgements,some
6877,,5975,53,NA,,NA,bizarre,NA,Higher Degree,1553867362216,46,female,cooperative,english,NA,NA,true,false,NA,NA,NA,59e773565de9b000017ed296,Guitars have four legs.,false,NA,2,Fri Mar 29 2019 13:32:08 GMT+0000 (Greenwich Mean Time),1553866328087,17.235483333333335,31,truth_value_judgements,number
6877,,6664,53,NA,,NA,true,NA,Higher Degree,1553867362216,46,female,cooperative,english,NA,NA,true,false,NA,NA,NA,59e773565de9b000017ed296,All hammers have a handle.,true,NA,2,Fri Mar 29 2019 13:32:08 GMT+0000 (Greenwich Mean Time),1553866328087,17.235483333333335,32,truth_value_judgements,all
6877,,5938,53,NA,,NA,bizarre,NA,Higher Degree,1553867362216,46,female,cooperative,english,NA,NA,true,false,NA,NA,NA,59e773565de9b000017ed296,Forests last three nights.,false,NA,3,Fri Mar 29 2019 13:32:08 GMT+0000 (Greenwich Mean Time),1553866328087,17.235483333333335,33,truth_value_judgements,number
6877,,5852,53,NA,,NA,bizarre,NA,Higher Degree,1553867362216,46,female,cooperative,english,NA,NA,true,false,NA,NA,NA,59e773565de9b000017ed296,All crayons have noses.,false,NA,2,Fri Mar 29 2019 13:32:08 GMT+0000 (Greenwich Mean Time),1553866328087,17.235483333333335,34,truth_value_judgements,all
6877,,5946,53,NA,,NA,bizarre,NA,Higher Degree,1553867362216,46,female,cooperative,english,NA,NA,true,false,NA,NA,NA,59e773565de9b000017ed296,Most sofas are friendly.,false,NA,4,Fri Mar 29 2019 13:32:08 GMT+0000 (Greenwich Mean Time),1553866328087,17.235483333333335,35,truth_value_judgements,most
6877,,5860,53,NA,,NA,true,NA,Higher Degree,1553867362216,46,female,cooperative,english,NA,NA,true,false,NA,NA,NA,59e773565de9b000017ed296,All dogs are mammals.,true,NA,9,Fri Mar 29 2019 13:32:08 GMT+0000 (Greenwich Mean Time),1553866328087,17.235483333333335,36,truth_value_judgements,all
6877,,5906,53,NA,,NA,bizarre,NA,Higher Degree,1553867362216,46,female,cooperative,english,NA,NA,true,false,NA,NA,NA,59e773565de9b000017ed296,All couches have windows.,false,NA,5,Fri Mar 29 2019 13:32:08 GMT+0000 (Greenwich Mean Time),1553866328087,17.235483333333335,37,truth_value_judgements,all
6877,,6160,53,NA,,NA,true,NA,Higher Degree,1553867362216,46,female,cooperative,english,NA,NA,true,false,NA,NA,NA,59e773565de9b000017ed296,Most people know their parents.,true,NA,1,Fri Mar 29 2019 13:32:08 GMT+0000 (Greenwich Mean Time),1553866328087,17.235483333333335,38,truth_value_judgements,most
6877,,5976,53,NA,,NA,bizarre,NA,Higher Degree,1553867362216,46,female,cooperative,english,NA,NA,true,false,NA,NA,NA,59e773565de9b000017ed296,Most tigers are literate.,false,NA,5,Fri Mar 29 2019 13:32:08 GMT+0000 (Greenwich Mean Time),1553866328087,17.235483333333335,39,truth_value_judgements,most
6877,,5670,53,NA,,NA,true,NA,Higher Degree,1553867362216,46,female,cooperative,english,NA,NA,true,false,NA,NA,NA,59e773565de9b000017ed296,All elephants have trunks.,true,NA,4,Fri Mar 29 2019 13:32:08 GMT+0000 (Greenwich Mean Time),1553866328087,17.235483333333335,40,truth_value_judgements,all
6877,,6020,53,NA,,NA,true,NA,Higher Degree,1553867362216,46,female,cooperative,english,NA,NA,true,false,NA,NA,NA,59e773565de9b000017ed296,All crocodiles are reptiles.,true,NA,7,Fri Mar 29 2019 13:32:08 GMT+0000 (Greenwich Mean Time),1553866328087,17.235483333333335,41,truth_value_judgements,all
6877,,5715,53,NA,,NA,true,NA,Higher Degree,1553867362216,46,female,cooperative,english,NA,NA,true,false,NA,NA,NA,59e773565de9b000017ed296,A normal motorcycle has two wheels.,true,NA,1,Fri Mar 29 2019 13:32:08 GMT+0000 (Greenwich Mean Time),1553866328087,17.235483333333335,42,truth_value_judgements,number
6877,,5890,53,NA,,NA,true,NA,Higher Degree,1553867362216,46,female,cooperative,english,NA,NA,true,false,NA,NA,NA,59e773565de9b000017ed296,All books have pages.,true,NA,1,Fri Mar 29 2019 13:32:08 GMT+0000 (Greenwich Mean Time),1553866328087,17.235483333333335,43,truth_value_judgements,all
6877,,7034,53,NA,,NA,implicature,NA,Higher Degree,1553867362216,46,female,cooperative,english,NA,NA,true,false,NA,NA,NA,59e773565de9b000017ed296,A human hand has two fingers.,true,NA,2,Fri Mar 29 2019 13:32:08 GMT+0000 (Greenwich Mean Time),1553866328087,17.235483333333335,44,truth_value_judgements,number
6877,,7024,53,NA,,NA,bizarre,NA,Higher Degree,1553867362216,46,female,cooperative,english,NA,NA,true,false,NA,NA,NA,59e773565de9b000017ed296,All birds have telephones.,false,NA,1,Fri Mar 29 2019 13:32:08 GMT+0000 (Greenwich Mean Time),1553866328087,17.235483333333335,45,truth_value_judgements,all
6877,,13734,53,NA,,NA,implicature,NA,Higher Degree,1553867362216,46,female,cooperative,english,NA,NA,true,false,NA,NA,NA,59e773565de9b000017ed296,Modern cars have three wheels.,true,NA,1,Fri Mar 29 2019 13:32:08 GMT+0000 (Greenwich Mean Time),1553866328087,17.235483333333335,46,truth_value_judgements,number
6877,,6345,53,NA,,NA,true,NA,Higher Degree,1553867362216,46,female,cooperative,english,NA,NA,true,false,NA,NA,NA,59e773565de9b000017ed296,A week has seven days.,true,NA,3,Fri Mar 29 2019 13:32:08 GMT+0000 (Greenwich Mean Time),1553866328087,17.235483333333335,47,truth_value_judgements,number
6877,,5823,53,NA,,NA,true,NA,Higher Degree,1553867362216,46,female,cooperative,english,NA,NA,true,false,NA,NA,NA,59e773565de9b000017ed296,All beetles are insects.,true,NA,10,Fri Mar 29 2019 13:32:08 GMT+0000 (Greenwich Mean Time),1553866328087,17.235483333333335,48,truth_value_judgements,all
6877,,5779,53,NA,,NA,true,NA,Higher Degree,1553867362216,46,female,cooperative,english,NA,NA,true,false,NA,NA,NA,59e773565de9b000017ed296,All salmon are fish.,true,NA,6,Fri Mar 29 2019 13:32:08 GMT+0000 (Greenwich Mean Time),1553866328087,17.235483333333335,49,truth_value_judgements,all
6877,,5961,53,NA,,NA,true,NA,Higher Degree,1553867362216,46,female,cooperative,english,NA,NA,true,false,NA,NA,NA,59e773565de9b000017ed296,All robins have wings.,true,NA,3,Fri Mar 29 2019 13:32:08 GMT+0000 (Greenwich Mean Time),1553866328087,17.235483333333335,50,truth_value_judgements,all
6877,,13260,53,NA,,NA,true,NA,Higher Degree,1553867362216,46,female,cooperative,english,NA,NA,true,false,NA,NA,NA,59e773565de9b000017ed296,Most horses are tame.,true,NA,5,Fri Mar 29 2019 13:32:08 GMT+0000 (Greenwich Mean Time),1553866328087,17.235483333333335,51,truth_value_judgements,most
6877,,5763,53,NA,,NA,true,NA,Higher Degree,1553867362216,46,female,cooperative,english,NA,NA,true,false,NA,NA,NA,59e773565de9b000017ed296,Some drinks are made from chocolate.,true,NA,5,Fri Mar 29 2019 13:32:08 GMT+0000 (Greenwich Mean Time),1553866328087,17.235483333333335,52,truth_value_judgements,some
6877,,5686,53,NA,,NA,implicature,NA,Higher Degree,1553867362216,46,female,cooperative,english,NA,NA,true,false,NA,NA,NA,59e773565de9b000017ed296,Most elephants are mammals.,true,NA,5,Fri Mar 29 2019 13:32:08 GMT+0000 (Greenwich Mean Time),1553866328087,17.235483333333335,53,truth_value_judgements,most
6877,,5648,53,NA,,NA,implicature,NA,Higher Degree,1553867362216,46,female,cooperative,english,NA,NA,true,false,NA,NA,NA,59e773565de9b000017ed296,Some trouts are fish.,true,NA,1,Fri Mar 29 2019 13:32:08 GMT+0000 (Greenwich Mean Time),1553866328087,17.235483333333335,54,truth_value_judgements,some
6877,,5613,53,NA,,NA,true,NA,Higher Degree,1553867362216,46,female,cooperative,english,NA,NA,true,false,NA,NA,NA,59e773565de9b000017ed296,All refrigerators have doors.,true,NA,5,Fri Mar 29 2019 13:32:08 GMT+0000 (Greenwich Mean Time),1553866328087,17.235483333333335,55,truth_value_judgements,all
6877,,5662,53,NA,,NA,bizarre,NA,Higher Degree,1553867362216,46,female,cooperative,english,NA,NA,true,false,NA,NA,NA,59e773565de9b000017ed296,Some fruits have computers.,false,NA,2,Fri Mar 29 2019 13:32:08 GMT+0000 (Greenwich Mean Time),1553866328087,17.235483333333335,56,truth_value_judgements,some
6877,,5938,53,NA,,NA,true,NA,Higher Degree,1553867362216,46,female,cooperative,english,NA,NA,true,false,NA,NA,NA,59e773565de9b000017ed296,Some flowers are yellow.,true,NA,1,Fri Mar 29 2019 13:32:08 GMT+0000 (Greenwich Mean Time),1553866328087,17.235483333333335,57,truth_value_judgements,some
6877,,8059,53,NA,,NA,implicature,NA,Higher Degree,1553867362216,46,female,cooperative,english,NA,NA,true,false,NA,NA,NA,59e773565de9b000017ed296,A year has 245 days.,true,NA,4,Fri Mar 29 2019 13:32:08 GMT+0000 (Greenwich Mean Time),1553866328087,17.235483333333335,58,truth_value_judgements,number
6877,,5976,53,NA,,NA,implicature,NA,Higher Degree,1553867362216,46,female,cooperative,english,NA,NA,true,false,NA,NA,NA,59e773565de9b000017ed296,Most sharks are fish.,true,NA,1,Fri Mar 29 2019 13:32:08 GMT+0000 (Greenwich Mean Time),1553866328087,17.235483333333335,59,truth_value_judgements,most
6877,,6156,53,NA,,NA,bizarre,NA,Higher Degree,1553867362216,46,female,cooperative,english,NA,NA,true,false,NA,NA,NA,59e773565de9b000017ed296,Most elephants have glasses.,false,NA,1,Fri Mar 29 2019 13:32:08 GMT+0000 (Greenwich Mean Time),1553866328087,17.235483333333335,60,truth_value_judgements,most
6876,NA,4876,21,NA,,NA,NA,12,Graduated College,1553866215353,46,male,cooperative,english,0,NA,NA,NA,NA,NA,images/Plate1.png,5c929a00e2826c0017166719,Please type the number you see in the picture above into the textbox. Please write 'none' if you do not see anything?,12,NA,NA,Fri Mar 29 2019 12:48:04 GMT+0000 (Greenwich Mean Time),1553863684769,42.1764,1,color_blindness_test,NA
6876,NA,8200,21,NA,,NA,NA,73,Graduated College,1553866215353,46,male,cooperative,english,0,NA,NA,NA,NA,NA,images/Plate13.png,5c929a00e2826c0017166719,Please type the number you see in the picture above into the textbox. Please write 'none' if you do not see anything?,73,NA,NA,Fri Mar 29 2019 12:48:04 GMT+0000 (Greenwich Mean Time),1553863684769,42.1764,2,color_blindness_test,NA
6876,NA,4490,21,NA,,NA,NA,45,Graduated College,1553866215353,46,male,cooperative,english,0,NA,NA,NA,NA,NA,images/Plate9.png,5c929a00e2826c0017166719,Please type the number you see in the picture above into the textbox. Please write 'none' if you do not see anything?,45,NA,NA,Fri Mar 29 2019 12:48:04 GMT+0000 (Greenwich Mean Time),1553863684769,42.1764,3,color_blindness_test,NA
6876,NA,6135,21,NA,,NA,NA,NA,Graduated College,1553866215353,46,male,cooperative,english,NA,NA,red,green,NA,NA,NA,5c929a00e2826c0017166719,Which color is the box surrounding the bonus card?,green,NA,NA,Fri Mar 29 2019 12:48:04 GMT+0000 (Greenwich Mean Time),1553863684769,42.1764,1,comprehension_test,NA
6876,NA,6972,21,NA,,NA,NA,NA,Graduated College,1553866215353,46,male,cooperative,english,NA,NA,yes,no,NA,NA,NA,5c929a00e2826c0017166719,Are you allowed to select words that make the whole descriptions false?,no,NA,NA,Fri Mar 29 2019 12:48:04 GMT+0000 (Greenwich Mean Time),1553863684769,42.1764,2,comprehension_test,NA
6876,NA,4926,21,NA,,NA,NA,NA,Graduated College,1553866215353,46,male,cooperative,english,NA,NA,help,mislead,NA,NA,NA,5c929a00e2826c0017166719,"Is your goal to help the guesser find the bonus card, or should you mislead the guesser to pick the other card instead?",help,NA,NA,Fri Mar 29 2019 12:48:04 GMT+0000 (Greenwich Mean Time),1553863684769,42.1764,3,comprehension_test,NA
6876,NA,17122,21,pragmatic_bonus|pragmatic_no-bonus|false|false|tautology|nonsense,,green|toasters|pink|boats|objects|clowns,number,NA,Graduated College,1553866215353,46,male,cooperative,english,NA,04,NA,NA,NA,NA,images/04NUM.PNG,5c929a00e2826c0017166719,NA,false,On the bonus card six of the objects are,NA,Fri Mar 29 2019 12:48:04 GMT+0000 (Greenwich Mean Time),1553863684769,42.1764,1,sentence_completion,NA
6876,NA,6913,21,pragmatic_bonus|pragmatic_no-bonus|false|false|tautology|nonsense,,green|apples|guitars|yellow|objects|clowns,ad_hoc,NA,Graduated College,1553866215353,46,male,cooperative,english,NA,17,NA,NA,NA,NA,images/17HOC.PNG,5c929a00e2826c0017166719,NA,false,On the bonus card the objects in the middle row are,NA,Fri Mar 29 2019 12:48:04 GMT+0000 (Greenwich Mean Time),1553863684769,42.1764,2,sentence_completion,NA
6876,NA,23567,21,pragmatic_bonus|pragmatic_no-bonus|false|false|tautology|nonsense,,pumpkins|blue|mugs|green|objects|clowns,number,NA,Graduated College,1553866215353,46,male,cooperative,english,NA,01,NA,NA,NA,NA,images/01NUM.PNG,5c929a00e2826c0017166719,NA,pragmatic_bonus,On the bonus card five of the objects are,NA,Fri Mar 29 2019 12:48:04 GMT+0000 (Greenwich Mean Time),1553863684769,42.1764,3,sentence_completion,NA
6876,NA,15712,21,semantic_bonus|semantic_no-bonus|false|false|contradiction|nonsense,,yellow|pink|combs|irons|objects|clowns,all,NA,Graduated College,1553866215353,46,male,cooperative,english,NA,33,NA,NA,NA,NA,images/33ALL.PNG,5c929a00e2826c0017166719,NA,semantic_bonus,On the bonus card all of the objects are,NA,Fri Mar 29 2019 12:48:04 GMT+0000 (Greenwich Mean Time),1553863684769,42.1764,4,sentence_completion,NA
6876,NA,71277,21,pragmatic_bonus|pragmatic_no-bonus|false|false|tautology|nonsense,,beds|blue|donuts|green|objects|clowns,most,NA,Graduated College,1553866215353,46,male,cooperative,english,NA,10,NA,NA,NA,NA,images/10MOST.PNG,5c929a00e2826c0017166719,NA,pragmatic_no-bonus,On the bonus card most of the objects are,NA,Fri Mar 29 2019 12:48:04 GMT+0000 (Greenwich Mean Time),1553863684769,42.1764,5,sentence_completion,NA
6876,NA,33260,21,pragmatic_bonus|pragmatic_no-bonus|false|false|tautology|nonsense,,blue|kites|green|benches|objects|clowns,ad_hoc,NA,Graduated College,1553866215353,46,male,cooperative,english,NA,13,NA,NA,NA,NA,images/13HOC.PNG,5c929a00e2826c0017166719,NA,pragmatic_bonus,On the bonus card the objects in the top row are,NA,Fri Mar 29 2019 12:48:04 GMT+0000 (Greenwich Mean Time),1553863684769,42.1764,6,sentence_completion,NA
6876,NA,135912,21,semantic_bonus|semantic_no-bonus|false|false|contradiction|nonsense,,trumpets|carrots|green|blue|objects|clowns,all,NA,Graduated College,1553866215353,46,male,cooperative,english,NA,34,NA,NA,NA,NA,images/34ALL.PNG,5c929a00e2826c0017166719,NA,semantic_bonus,On the bonus card all of the objects are,NA,Fri Mar 29 2019 12:48:04 GMT+0000 (Greenwich Mean Time),1553863684769,42.1764,7,sentence_completion,NA
6876,NA,3465,21,semantic_bonus|semantic_no-bonus|false|false|contradiction|nonsense,,shoes|trophies|pink|yellow|objects|clowns,all,NA,Graduated College,1553866215353,46,male,cooperative,english,NA,30,NA,NA,NA,NA,images/30ALL.PNG,5c929a00e2826c0017166719,NA,semantic_bonus,On the bonus card all of the objects are,NA,Fri Mar 29 2019 12:48:04 GMT+0000 (Greenwich Mean Time),1553863684769,42.1764,8,sentence_completion,NA
6876,NA,2637,21,pragmatic_bonus|pragmatic_no-bonus|false|false|tautology|nonsense,,vases|pink|green|diamonds|objects|clowns,ad_hoc,NA,Graduated College,1553866215353,46,male,cooperative,english,NA,16,NA,NA,NA,NA,images/16HOC.PNG,5c929a00e2826c0017166719,NA,pragmatic_no-bonus,On the bonus card the objects in the top row are,NA,Fri Mar 29 2019 12:48:04 GMT+0000 (Greenwich Mean Time),1553863684769,42.1764,9,sentence_completion,NA
6876,NA,6783,21,pragmatic_bonus|pragmatic_no-bonus|false|false|tautology|nonsense,,green|pears|yellow|buckets|objects|clowns,number,NA,Graduated College,1553866215353,46,male,cooperative,english,NA,05,NA,NA,NA,NA,images/05NUM.PNG,5c929a00e2826c0017166719,NA,pragmatic_bonus,On the bonus card six of the objects are,NA,Fri Mar 29 2019 12:48:04 GMT+0000 (Greenwich Mean Time),1553863684769,42.1764,10,sentence_completion,NA
6876,NA,15207,21,pragmatic_bonus|pragmatic_no-bonus|false|false|tautology|nonsense,,flowers|blue|yellow|scissors|objects|clowns,most,NA,Graduated College,1553866215353,46,male,cooperative,english,NA,12,NA,NA,NA,NA,images/12MOST.PNG,5c929a00e2826c0017166719,NA,pragmatic_bonus,On the bonus card most of the objects are,NA,Fri Mar 29 2019 12:48:04 GMT+0000 (Greenwich Mean Time),1553863684769,42.1764,11,sentence_completion,NA
6876,NA,5014,21,semantic_bonus|semantic_no-bonus|false|false|contradiction|nonsense,,cars|sofas|blue|pink|objects|clowns,none,NA,Graduated College,1553866215353,46,male,cooperative,english,NA,26,NA,NA,NA,NA,images/26NONE.PNG,5c929a00e2826c0017166719,NA,semantic_no-bonus,On the bonus card none of the objects are,NA,Fri Mar 29 2019 12:48:04 GMT+0000 (Greenwich Mean Time),1553863684769,42.1764,12,sentence_completion,NA
6876,NA,4445,21,semantic_bonus|semantic_no-bonus|false|false|contradiction|nonsense,,pink|yellow|onions|rackets|objects|clowns,none,NA,Graduated College,1553866215353,46,male,cooperative,english,NA,21,NA,NA,NA,NA,images/21NONE.PNG,5c929a00e2826c0017166719,NA,semantic_bonus,On the bonus card none of the objects are,NA,Fri Mar 29 2019 12:48:04 GMT+0000 (Greenwich Mean Time),1553863684769,42.1764,13,sentence_completion,NA
6876,NA,10331,21,semantic_bonus|semantic_no-bonus|false|false|contradiction|nonsense,,kettles|bananas|blue|green|objects|clowns,none,NA,Graduated College,1553866215353,46,male,cooperative,english,NA,22,NA,NA,NA,NA,images/22NONE.PNG,5c929a00e2826c0017166719,NA,semantic_bonus,On the bonus card none of the objects are,NA,Fri Mar 29 2019 12:48:04 GMT+0000 (Greenwich Mean Time),1553863684769,42.1764,14,sentence_completion,NA
6876,NA,17388,21,pragmatic_bonus|pragmatic_no-bonus|false|false|tautology|nonsense,,blue|spoons|saws|yellow|objects|clowns,number,NA,Graduated College,1553866215353,46,male,cooperative,english,NA,03,NA,NA,NA,NA,images/03NUM.PNG,5c929a00e2826c0017166719,NA,pragmatic_bonus,On the bonus card five of the objects are,NA,Fri Mar 29 2019 12:48:04 GMT+0000 (Greenwich Mean Time),1553863684769,42.1764,15,sentence_completion,NA
6876,NA,26035,21,pragmatic_bonus|pragmatic_no-bonus|false|false|tautology|nonsense,,pink|books|hammers|blue|objects|clowns,most,NA,Graduated College,1553866215353,46,male,cooperative,english,NA,11,NA,NA,NA,NA,images/11MOST.PNG,5c929a00e2826c0017166719,NA,pragmatic_bonus,On the bonus card most of the objects are,NA,Fri Mar 29 2019 12:48:04 GMT+0000 (Greenwich Mean Time),1553863684769,42.1764,16,sentence_completion,NA
6876,NA,8077,21,semantic_bonus|semantic_no-bonus|false|false|contradiction|nonsense,,blue|yellow|acorns|boots|objects|clowns,none,NA,Graduated College,1553866215353,46,male,cooperative,english,NA,27,NA,NA,NA,NA,images/27NONE.PNG,5c929a00e2826c0017166719,NA,semantic_bonus,On the bonus card none of the objects are,NA,Fri Mar 29 2019 12:48:04 GMT+0000 (Greenwich Mean Time),1553863684769,42.1764,17,sentence_completion,NA
6876,NA,7871,21,semantic_bonus|semantic_no-bonus|false|false|contradiction|nonsense,,blue|pink|feathers|vases|objects|clowns,all,NA,Graduated College,1553866215353,46,male,cooperative,english,NA,35,NA,NA,NA,NA,images/35ALL.PNG,5c929a00e2826c0017166719,NA,semantic_bonus,On the bonus card all of the objects are,NA,Fri Mar 29 2019 12:48:04 GMT+0000 (Greenwich Mean Time),1553863684769,42.1764,18,sentence_completion,NA
6876,NA,4982,21,pragmatic_bonus|pragmatic_no-bonus|false|false|tautology|nonsense,,lamps|yellow|green|phones|objects|clowns,most,NA,Graduated College,1553866215353,46,male,cooperative,english,NA,08,NA,NA,NA,NA,images/08MOST.PNG,5c929a00e2826c0017166719,NA,pragmatic_bonus,On the bonus card most of the objects are,NA,Fri Mar 29 2019 12:48:04 GMT+0000 (Greenwich Mean Time),1553863684769,42.1764,19,sentence_completion,NA
6876,NA,3506,21,pragmatic_bonus|pragmatic_no-bonus|false|false|tautology|nonsense,,pink|bells|yellow|hourglasses|objects|clowns,ad_hoc,NA,Graduated College,1553866215353,46,male,cooperative,english,NA,18,NA,NA,NA,NA,images/18HOC.PNG,5c929a00e2826c0017166719,NA,pragmatic_bonus,On the bonus card the objects in the bottom row are,NA,Fri Mar 29 2019 12:48:04 GMT+0000 (Greenwich Mean Time),1553863684769,42.1764,20,sentence_completion,NA
6876,NA,58039,21,pragmatic_bonus|pragmatic_no-bonus|false|false|tautology|nonsense,,bathtubs|pink|candles|yellow|objects|clowns,number,NA,Graduated College,1553866215353,46,male,cooperative,english,NA,06,NA,NA,NA,NA,images/06NUM.PNG,5c929a00e2826c0017166719,NA,pragmatic_bonus,On the bonus card six of the objects are,NA,Fri Mar 29 2019 12:48:04 GMT+0000 (Greenwich Mean Time),1553863684769,42.1764,21,sentence_completion,NA
6876,NA,7749,21,pragmatic_bonus|pragmatic_no-bonus|false|false|tautology|nonsense,,pink|keys|bowties|green|objects|clowns,most,NA,Graduated College,1553866215353,46,male,cooperative,english,NA,07,NA,NA,NA,NA,images/07MOST.PNG,5c929a00e2826c0017166719,NA,false,On the bonus card most of the objects are,NA,Fri Mar 29 2019 12:48:04 GMT+0000 (Greenwich Mean Time),1553863684769,42.1764,22,sentence_completion,NA
6876,NA,3683,21,pragmatic_bonus|pragmatic_no-bonus|false|false|tautology|nonsense,,yellow|flags|pink|sandwiches|objects|clowns,most,NA,Graduated College,1553866215353,46,male,cooperative,english,NA,09,NA,NA,NA,NA,images/09MOST.PNG,5c929a00e2826c0017166719,NA,false,On the bonus card most of the objects are,NA,Fri Mar 29 2019 12:48:04 GMT+0000 (Greenwich Mean Time),1553863684769,42.1764,23,sentence_completion,NA
6876,NA,4282,21,semantic_bonus|semantic_no-bonus|false|false|contradiction|nonsense,,blue|green|envelopes|helicopters|objects|clowns,none,NA,Graduated College,1553866215353,46,male,cooperative,english,NA,25,NA,NA,NA,NA,images/25NONE.PNG,5c929a00e2826c0017166719,NA,semantic_bonus,On the bonus card none of the objects are,NA,Fri Mar 29 2019 12:48:04 GMT+0000 (Greenwich Mean Time),1553863684769,42.1764,24,sentence_completion,NA
6876,NA,5562,21,pragmatic_bonus|pragmatic_no-bonus|false|false|tautology|nonsense,,pineapples|pink|blue|socks|objects|clowns,number,NA,Graduated College,1553866215353,46,male,cooperative,english,NA,02,NA,NA,NA,NA,images/02NUM.PNG,5c929a00e2826c0017166719,NA,pragmatic_bonus,On the bonus card five of the objects are,NA,Fri Mar 29 2019 12:48:04 GMT+0000 (Greenwich Mean Time),1553863684769,42.1764,25,sentence_completion,NA
6876,NA,24677,21,semantic_bonus|semantic_no-bonus|false|false|contradiction|nonsense,,drums|tents|green|yellow|objects|clowns,all,NA,Graduated College,1553866215353,46,male,cooperative,english,NA,32,NA,NA,NA,NA,images/32ALL.PNG,5c929a00e2826c0017166719,NA,semantic_bonus,On the bonus card all of the objects are,NA,Fri Mar 29 2019 12:48:04 GMT+0000 (Greenwich Mean Time),1553863684769,42.1764,26,sentence_completion,NA
6876,NA,7918,21,semantic_bonus|semantic_no-bonus|false|false|contradiction|nonsense,,cakes|teapots|green|yellow|objects|clowns,none,NA,Graduated College,1553866215353,46,male,cooperative,english,NA,20,NA,NA,NA,NA,images/20NONE.PNG,5c929a00e2826c0017166719,NA,semantic_bonus,On the bonus card none of the objects are,NA,Fri Mar 29 2019 12:48:04 GMT+0000 (Greenwich Mean Time),1553863684769,42.1764,27,sentence_completion,NA
6876,NA,3783,21,semantic_bonus|semantic_no-bonus|false|false|contradiction|nonsense,,umbrellas|rockets|green|pink|objects|clowns,all,NA,Graduated College,1553866215353,46,male,cooperative,english,NA,28,NA,NA,NA,NA,images/28ALL.PNG,5c929a00e2826c0017166719,NA,semantic_bonus,On the bonus card all of the objects are,NA,Fri Mar 29 2019 12:48:04 GMT+0000 (Greenwich Mean Time),1553863684769,42.1764,28,sentence_completion,NA
6876,NA,9441,21,semantic_bonus|semantic_no-bonus|false|false|contradiction|nonsense,,blue|pink|trucks|saxophones|objects|clowns,none,NA,Graduated College,1553866215353,46,male,cooperative,english,NA,23,NA,NA,NA,NA,images/23NONE.PNG,5c929a00e2826c0017166719,NA,semantic_bonus,On the bonus card none of the objects are,NA,Fri Mar 29 2019 12:48:04 GMT+0000 (Greenwich Mean Time),1553863684769,42.1764,29,sentence_completion,NA
6876,NA,82202,21,pragmatic_bonus|pragmatic_no-bonus|false|false|tautology|nonsense,,crowns|blue|pink|pistols|objects|clowns,ad_hoc,NA,Graduated College,1553866215353,46,male,cooperative,english,NA,14,NA,NA,NA,NA,images/14HOC.PNG,5c929a00e2826c0017166719,NA,pragmatic_bonus,On the bonus card the objects in the middle row are,NA,Fri Mar 29 2019 12:48:04 GMT+0000 (Greenwich Mean Time),1553863684769,42.1764,30,sentence_completion,NA
6876,NA,13541,21,semantic_bonus|semantic_no-bonus|false|false|contradiction|nonsense,,green|pink|mail boxes|light bulbs|objects|clowns,none,NA,Graduated College,1553866215353,46,male,cooperative,english,NA,19,NA,NA,NA,NA,images/19NONE.PNG,5c929a00e2826c0017166719,NA,semantic_bonus,On the bonus card none of the objects are,NA,Fri Mar 29 2019 12:48:04 GMT+0000 (Greenwich Mean Time),1553863684769,42.1764,31,sentence_completion,NA
6876,NA,3284,21,semantic_bonus|semantic_no-bonus|false|false|contradiction|nonsense,,pans|jars|yellow|blue|objects|clowns,none,NA,Graduated College,1553866215353,46,male,cooperative,english,NA,24,NA,NA,NA,NA,images/24NONE.PNG,5c929a00e2826c0017166719,NA,semantic_bonus,On the bonus card none of the objects are,NA,Fri Mar 29 2019 12:48:04 GMT+0000 (Greenwich Mean Time),1553863684769,42.1764,32,sentence_completion,NA
6876,NA,9698,21,semantic_bonus|semantic_no-bonus|false|false|contradiction|nonsense,,bottles|bikes|yellow|blue|objects|clowns,all,NA,Graduated College,1553866215353,46,male,cooperative,english,NA,36,NA,NA,NA,NA,images/36ALL.PNG,5c929a00e2826c0017166719,NA,semantic_bonus,On the bonus card all of the objects are,NA,Fri Mar 29 2019 12:48:04 GMT+0000 (Greenwich Mean Time),1553863684769,42.1764,33,sentence_completion,NA
6876,NA,3487,21,semantic_bonus|semantic_no-bonus|false|false|contradiction|nonsense,,pink|green|TVs|fans|objects|clowns,all,NA,Graduated College,1553866215353,46,male,cooperative,english,NA,31,NA,NA,NA,NA,images/31ALL.PNG,5c929a00e2826c0017166719,NA,semantic_bonus,On the bonus card all of the objects are,NA,Fri Mar 29 2019 12:48:04 GMT+0000 (Greenwich Mean Time),1553863684769,42.1764,34,sentence_completion,NA
6876,NA,9073,21,pragmatic_bonus|pragmatic_no-bonus|false|false|tautology|nonsense,,yellow|forks|blue|leaves|objects|clowns,ad_hoc,NA,Graduated College,1553866215353,46,male,cooperative,english,NA,15,NA,NA,NA,NA,images/15HOC.PNG,5c929a00e2826c0017166719,NA,pragmatic_bonus,On the bonus card the objects in the bottom row are,NA,Fri Mar 29 2019 12:48:04 GMT+0000 (Greenwich Mean Time),1553863684769,42.1764,35,sentence_completion,NA
6876,NA,8384,21,semantic_bonus|semantic_no-bonus|false|false|contradiction|nonsense,,green|yellow|brooms|brushes|objects|clowns,all,NA,Graduated College,1553866215353,46,male,cooperative,english,NA,29,NA,NA,NA,NA,images/29ALL.PNG,5c929a00e2826c0017166719,NA,semantic_bonus,On the bonus card all of the objects are,NA,Fri Mar 29 2019 12:48:04 GMT+0000 (Greenwich Mean Time),1553863684769,42.1764,36,sentence_completion,NA
6876,NA,2441,21,NA,,NA,NA,NA,Graduated College,1553866215353,46,male,cooperative,english,NA,NA,NA,NA,0%,100%,NA,5c929a00e2826c0017166719,NA,68,NA,NA,Fri Mar 29 2019 12:48:04 GMT+0000 (Greenwich Mean Time),1553863684769,42.1764,1,performance_rating,NA
6876,,6030,21,NA,,NA,bizarre,NA,Graduated College,1553866215353,46,male,cooperative,english,NA,NA,true,false,NA,NA,NA,5c929a00e2826c0017166719,Most sofas are friendly.,true,NA,4,Fri Mar 29 2019 12:48:04 GMT+0000 (Greenwich Mean Time),1553863684769,42.1764,1,truth_value_judgements,most
6876,,6867,21,NA,,NA,bizarre,NA,Graduated College,1553866215353,46,male,cooperative,english,NA,NA,true,false,NA,NA,NA,5c929a00e2826c0017166719,Some stores are made of bubbles.,false,NA,4,Fri Mar 29 2019 12:48:04 GMT+0000 (Greenwich Mean Time),1553863684769,42.1764,2,truth_value_judgements,some
6876,,5454,21,NA,,NA,bizarre,NA,Graduated College,1553866215353,46,male,cooperative,english,NA,NA,true,false,NA,NA,NA,5c929a00e2826c0017166719,Some fruits have computers.,false,NA,2,Fri Mar 29 2019 12:48:04 GMT+0000 (Greenwich Mean Time),1553863684769,42.1764,3,truth_value_judgements,some
6876,,5695,21,NA,,NA,implicature,NA,Graduated College,1553866215353,46,male,cooperative,english,NA,NA,true,false,NA,NA,NA,5c929a00e2826c0017166719,Some lizards are reptiles.,true,NA,2,Fri Mar 29 2019 12:48:04 GMT+0000 (Greenwich Mean Time),1553863684769,42.1764,4,truth_value_judgements,some
6876,,5572,21,NA,,NA,bizarre,NA,Graduated College,1553866215353,46,male,cooperative,english,NA,NA,true,false,NA,NA,NA,5c929a00e2826c0017166719,Some children are made of feathers.,false,NA,5,Fri Mar 29 2019 12:48:04 GMT+0000 (Greenwich Mean Time),1553863684769,42.1764,5,truth_value_judgements,some
6876,,5681,21,NA,,NA,true,NA,Graduated College,1553866215353,46,male,cooperative,english,NA,NA,true,false,NA,NA,NA,5c929a00e2826c0017166719,All crocodiles are reptiles.,true,NA,7,Fri Mar 29 2019 12:48:04 GMT+0000 (Greenwich Mean Time),1553863684769,42.1764,6,truth_value_judgements,all
6876,,6418,21,NA,,NA,true,NA,Graduated College,1553866215353,46,male,cooperative,english,NA,NA,true,false,NA,NA,NA,5c929a00e2826c0017166719,All eagles are birds.,true,NA,8,Fri Mar 29 2019 12:48:04 GMT+0000 (Greenwich Mean Time),1553863684769,42.1764,7,truth_value_judgements,all
6876,,5660,21,NA,,NA,true,NA,Graduated College,1553866215353,46,male,cooperative,english,NA,NA,true,false,NA,NA,NA,5c929a00e2826c0017166719,Some drinks are made from chocolate.,true,NA,5,Fri Mar 29 2019 12:48:04 GMT+0000 (Greenwich Mean Time),1553863684769,42.1764,8,truth_value_judgements,some
6876,,6498,21,NA,,NA,bizarre,NA,Graduated College,1553866215353,46,male,cooperative,english,NA,NA,true,false,NA,NA,NA,5c929a00e2826c0017166719,Most motorcycles like music.,false,NA,3,Fri Mar 29 2019 12:48:04 GMT+0000 (Greenwich Mean Time),1553863684769,42.1764,9,truth_value_judgements,most
6876,,5728,21,NA,,NA,bizarre,NA,Graduated College,1553866215353,46,male,cooperative,english,NA,NA,true,false,NA,NA,NA,5c929a00e2826c0017166719,Some fish are made of leaves.,false,NA,1,Fri Mar 29 2019 12:48:04 GMT+0000 (Greenwich Mean Time),1553863684769,42.1764,10,truth_value_judgements,some
6876,,30056,21,NA,,NA,implicature,NA,Graduated College,1553866215353,46,male,cooperative,english,NA,NA,true,false,NA,NA,NA,5c929a00e2826c0017166719,Modern cars have three wheels.,false,NA,1,Fri Mar 29 2019 12:48:04 GMT+0000 (Greenwich Mean Time),1553863684769,42.1764,11,truth_value_judgements,number
6876,,5544,21,NA,,NA,bizarre,NA,Graduated College,1553866215353,46,male,cooperative,english,NA,NA,true,false,NA,NA,NA,5c929a00e2826c0017166719,All crayons have noses.,false,NA,2,Fri Mar 29 2019 12:48:04 GMT+0000 (Greenwich Mean Time),1553863684769,42.1764,12,truth_value_judgements,all
6876,,24450,21,NA,,NA,implicature,NA,Graduated College,1553866215353,46,male,cooperative,english,NA,NA,true,false,NA,NA,NA,5c929a00e2826c0017166719,Most horses are mammals.,false,NA,2,Fri Mar 29 2019 12:48:04 GMT+0000 (Greenwich Mean Time),1553863684769,42.1764,13,truth_value_judgements,most
6876,,7794,21,NA,,NA,true,NA,Graduated College,1553866215353,46,male,cooperative,english,NA,NA,true,false,NA,NA,NA,5c929a00e2826c0017166719,All dogs are mammals.,false,NA,9,Fri Mar 29 2019 12:48:04 GMT+0000 (Greenwich Mean Time),1553863684769,42.1764,14,truth_value_judgements,all
6876,,6138,21,NA,,NA,true,NA,Graduated College,1553866215353,46,male,cooperative,english,NA,NA,true,false,NA,NA,NA,5c929a00e2826c0017166719,Most birds can fly.,true,NA,2,Fri Mar 29 2019 12:48:04 GMT+0000 (Greenwich Mean Time),1553863684769,42.1764,15,truth_value_judgements,most
6876,,115372,21,NA,,NA,bizarre,NA,Graduated College,1553866215353,46,male,cooperative,english,NA,NA,true,false,NA,NA,NA,5c929a00e2826c0017166719,Most elephants have glasses.,false,NA,1,Fri Mar 29 2019 12:48:04 GMT+0000 (Greenwich Mean Time),1553863684769,42.1764,16,truth_value_judgements,most
6876,,5757,21,NA,,NA,true,NA,Graduated College,1553866215353,46,male,cooperative,english,NA,NA,true,false,NA,NA,NA,5c929a00e2826c0017166719,All elephants have trunks.,true,NA,4,Fri Mar 29 2019 12:48:04 GMT+0000 (Greenwich Mean Time),1553863684769,42.1764,17,truth_value_judgements,all
6876,,12988,21,NA,,NA,implicature,NA,Graduated College,1553866215353,46,male,cooperative,english,NA,NA,true,false,NA,NA,NA,5c929a00e2826c0017166719,The universe contains three planets.,false,NA,3,Fri Mar 29 2019 12:48:04 GMT+0000 (Greenwich Mean Time),1553863684769,42.1764,18,truth_value_judgements,number
6876,,10861,21,NA,,NA,implicature,NA,Graduated College,1553866215353,46,male,cooperative,english,NA,NA,true,false,NA,NA,NA,5c929a00e2826c0017166719,Most sharks are fish.,true,NA,1,Fri Mar 29 2019 12:48:04 GMT+0000 (Greenwich Mean Time),1553863684769,42.1764,19,truth_value_judgements,most
6876,,5488,21,NA,,NA,bizarre,NA,Graduated College,1553866215353,46,male,cooperative,english,NA,NA,true,false,NA,NA,NA,5c929a00e2826c0017166719,A week consists of five people.,false,NA,4,Fri Mar 29 2019 12:48:04 GMT+0000 (Greenwich Mean Time),1553863684769,42.1764,20,truth_value_judgements,number
6876,,19043,21,NA,,NA,true,NA,Graduated College,1553866215353,46,male,cooperative,english,NA,NA,true,false,NA,NA,NA,5c929a00e2826c0017166719,A normal motorcycle has two wheels.,true,NA,1,Fri Mar 29 2019 12:48:04 GMT+0000 (Greenwich Mean Time),1553863684769,42.1764,21,truth_value_judgements,number
6876,,5501,21,NA,,NA,true,NA,Graduated College,1553866215353,46,male,cooperative,english,NA,NA,true,false,NA,NA,NA,5c929a00e2826c0017166719,All salmon are fish.,true,NA,6,Fri Mar 29 2019 12:48:04 GMT+0000 (Greenwich Mean Time),1553863684769,42.1764,22,truth_value_judgements,all
6876,,185272,21,NA,,NA,true,NA,Graduated College,1553866215353,46,male,cooperative,english,NA,NA,true,false,NA,NA,NA,5c929a00e2826c0017166719,Cats have four legs.,true,NA,4,Fri Mar 29 2019 12:48:04 GMT+0000 (Greenwich Mean Time),1553863684769,42.1764,23,truth_value_judgements,number
6876,,5783,21,NA,,NA,implicature,NA,Graduated College,1553866215353,46,male,cooperative,english,NA,NA,true,false,NA,NA,NA,5c929a00e2826c0017166719,Some trouts are fish.,true,NA,1,Fri Mar 29 2019 12:48:04 GMT+0000 (Greenwich Mean Time),1553863684769,42.1764,24,truth_value_judgements,some
6876,,5555,21,NA,,NA,true,NA,Graduated College,1553866215353,46,male,cooperative,english,NA,NA,true,false,NA,NA,NA,5c929a00e2826c0017166719,Some tools are made of wood..,true,NA,3,Fri Mar 29 2019 12:48:04 GMT+0000 (Greenwich Mean Time),1553863684769,42.1764,25,truth_value_judgements,some
6876,,5391,21,NA,,NA,true,NA,Graduated College,1553866215353,46,male,cooperative,english,NA,NA,true,false,NA,NA,NA,5c929a00e2826c0017166719,Some flowers are yellow.,true,NA,1,Fri Mar 29 2019 12:48:04 GMT+0000 (Greenwich Mean Time),1553863684769,42.1764,26,truth_value_judgements,some
6876,,5552,21,NA,,NA,bizarre,NA,Graduated College,1553866215353,46,male,cooperative,english,NA,NA,true,false,NA,NA,NA,5c929a00e2826c0017166719,All garages sing.,false,NA,4,Fri Mar 29 2019 12:48:04 GMT+0000 (Greenwich Mean Time),1553863684769,42.1764,27,truth_value_judgements,all
6876,,5688,21,NA,,NA,true,NA,Graduated College,1553866215353,46,male,cooperative,english,NA,NA,true,false,NA,NA,NA,5c929a00e2826c0017166719,Some children are blond.,true,NA,4,Fri Mar 29 2019 12:48:04 GMT+0000 (Greenwich Mean Time),1553863684769,42.1764,28,truth_value_judgements,some
6876,,5663,21,NA,,NA,implicature,NA,Graduated College,1553866215353,46,male,cooperative,english,NA,NA,true,false,NA,NA,NA,5c929a00e2826c0017166719,A year has 245 days.,false,NA,4,Fri Mar 29 2019 12:48:04 GMT+0000 (Greenwich Mean Time),1553863684769,42.1764,29,truth_value_judgements,number
6876,,7379,21,NA,,NA,bizarre,NA,Graduated College,1553866215353,46,male,cooperative,english,NA,NA,true,false,NA,NA,NA,5c929a00e2826c0017166719,Forests last three nights.,false,NA,3,Fri Mar 29 2019 12:48:04 GMT+0000 (Greenwich Mean Time),1553863684769,42.1764,30,truth_value_judgements,number
6876,,6487,21,NA,,NA,bizarre,NA,Graduated College,1553866215353,46,male,cooperative,english,NA,NA,true,false,NA,NA,NA,5c929a00e2826c0017166719,All chairs tell time.,false,NA,3,Fri Mar 29 2019 12:48:04 GMT+0000 (Greenwich Mean Time),1553863684769,42.1764,31,truth_value_judgements,all
6876,,6780,21,NA,,NA,bizarre,NA,Graduated College,1553866215353,46,male,cooperative,english,NA,NA,true,false,NA,NA,NA,5c929a00e2826c0017166719,All couches have windows.,false,NA,5,Fri Mar 29 2019 12:48:04 GMT+0000 (Greenwich Mean Time),1553863684769,42.1764,32,truth_value_judgements,all
6876,,5698,21,NA,,NA,true,NA,Graduated College,1553866215353,46,male,cooperative,english,NA,NA,true,false,NA,NA,NA,5c929a00e2826c0017166719,All robins have wings.,true,NA,3,Fri Mar 29 2019 12:48:04 GMT+0000 (Greenwich Mean Time),1553863684769,42.1764,33,truth_value_judgements,all
6876,,5363,21,NA,,NA,true,NA,Graduated College,1553866215353,46,male,cooperative,english,NA,NA,true,false,NA,NA,NA,5c929a00e2826c0017166719,Most people know their parents.,true,NA,1,Fri Mar 29 2019 12:48:04 GMT+0000 (Greenwich Mean Time),1553863684769,42.1764,34,truth_value_judgements,most
6876,,5781,21,NA,,NA,implicature,NA,Graduated College,1553866215353,46,male,cooperative,english,NA,NA,true,false,NA,NA,NA,5c929a00e2826c0017166719,Monkeys have three bones.,true,NA,5,Fri Mar 29 2019 12:48:04 GMT+0000 (Greenwich Mean Time),1553863684769,42.1764,35,truth_value_judgements,number
6876,,5908,21,NA,,NA,true,NA,Graduated College,1553866215353,46,male,cooperative,english,NA,NA,true,false,NA,NA,NA,5c929a00e2826c0017166719,All beetles are insects.,true,NA,10,Fri Mar 29 2019 12:48:04 GMT+0000 (Greenwich Mean Time),1553863684769,42.1764,36,truth_value_judgements,all
6876,,5584,21,NA,,NA,bizarre,NA,Graduated College,1553866215353,46,male,cooperative,english,NA,NA,true,false,NA,NA,NA,5c929a00e2826c0017166719,All birds have telephones.,false,NA,1,Fri Mar 29 2019 12:48:04 GMT+0000 (Greenwich Mean Time),1553863684769,42.1764,37,truth_value_judgements,all
6876,,5375,21,NA,,NA,bizarre,NA,Graduated College,1553866215353,46,male,cooperative,english,NA,NA,true,false,NA,NA,NA,5c929a00e2826c0017166719,Some books are good to eat.,false,NA,3,Fri Mar 29 2019 12:48:04 GMT+0000 (Greenwich Mean Time),1553863684769,42.1764,38,truth_value_judgements,some
6876,,5336,21,NA,,NA,true,NA,Graduated College,1553866215353,46,male,cooperative,english,NA,NA,true,false,NA,NA,NA,5c929a00e2826c0017166719,Most people know more than one language.,false,NA,4,Fri Mar 29 2019 12:48:04 GMT+0000 (Greenwich Mean Time),1553863684769,42.1764,39,truth_value_judgements,most
6876,,56145,21,NA,,NA,implicature,NA,Graduated College,1553866215353,46,male,cooperative,english,NA,NA,true,false,NA,NA,NA,5c929a00e2826c0017166719,A human hand has two fingers.,false,NA,2,Fri Mar 29 2019 12:48:04 GMT+0000 (Greenwich Mean Time),1553863684769,42.1764,40,truth_value_judgements,number
6876,,5384,21,NA,,NA,implicature,NA,Graduated College,1553866215353,46,male,cooperative,english,NA,NA,true,false,NA,NA,NA,5c929a00e2826c0017166719,Some owls are birds.,true,NA,3,Fri Mar 29 2019 12:48:04 GMT+0000 (Greenwich Mean Time),1553863684769,42.1764,41,truth_value_judgements,some
6876,,5347,21,NA,,NA,bizarre,NA,Graduated College,1553866215353,46,male,cooperative,english,NA,NA,true,false,NA,NA,NA,5c929a00e2826c0017166719,The moon has two ears.,false,NA,1,Fri Mar 29 2019 12:48:04 GMT+0000 (Greenwich Mean Time),1553863684769,42.1764,42,truth_value_judgements,number
6876,,5982,21,NA,,NA,implicature,NA,Graduated College,1553866215353,46,male,cooperative,english,NA,NA,true,false,NA,NA,NA,5c929a00e2826c0017166719,Most snakes are reptiles.,true,NA,3,Fri Mar 29 2019 12:48:04 GMT+0000 (Greenwich Mean Time),1553863684769,42.1764,43,truth_value_judgements,most
6876,,7071,21,NA,,NA,bizarre,NA,Graduated College,1553866215353,46,male,cooperative,english,NA,NA,true,false,NA,NA,NA,5c929a00e2826c0017166719,Most chairs are hungry.,false,NA,2,Fri Mar 29 2019 12:48:04 GMT+0000 (Greenwich Mean Time),1553863684769,42.1764,44,truth_value_judgements,most
6876,,14697,21,NA,,NA,implicature,NA,Graduated College,1553866215353,46,male,cooperative,english,NA,NA,true,false,NA,NA,NA,5c929a00e2826c0017166719,Some cats are mammals.,false,NA,5,Fri Mar 29 2019 12:48:04 GMT+0000 (Greenwich Mean Time),1553863684769,42.1764,45,truth_value_judgements,some
6876,,7883,21,NA,,NA,true,NA,Graduated College,1553866215353,46,male,cooperative,english,NA,NA,true,false,NA,NA,NA,5c929a00e2826c0017166719,Most days in a year are working days.,true,NA,3,Fri Mar 29 2019 12:48:04 GMT+0000 (Greenwich Mean Time),1553863684769,42.1764,46,truth_value_judgements,most
6876,,16401,21,NA,,NA,true,NA,Graduated College,1553866215353,46,male,cooperative,english,NA,NA,true,false,NA,NA,NA,5c929a00e2826c0017166719,Monkeys have five fingers on each hand.,false,NA,2,Fri Mar 29 2019 12:48:04 GMT+0000 (Greenwich Mean Time),1553863684769,42.1764,47,truth_value_judgements,number
6876,,13621,21,NA,,NA,implicature,NA,Graduated College,1553866215353,46,male,cooperative,english,NA,NA,true,false,NA,NA,NA,5c929a00e2826c0017166719,Most elephants are mammals.,true,NA,5,Fri Mar 29 2019 12:48:04 GMT+0000 (Greenwich Mean Time),1553863684769,42.1764,48,truth_value_judgements,most
6876,,5429,21,NA,,NA,true,NA,Graduated College,1553866215353,46,male,cooperative,english,NA,NA,true,false,NA,NA,NA,5c929a00e2826c0017166719,Most horses are tame.,false,NA,5,Fri Mar 29 2019 12:48:04 GMT+0000 (Greenwich Mean Time),1553863684769,42.1764,49,truth_value_judgements,most
6876,,5518,21,NA,,NA,true,NA,Graduated College,1553866215353,46,male,cooperative,english,NA,NA,true,false,NA,NA,NA,5c929a00e2826c0017166719,All refrigerators have doors.,true,NA,5,Fri Mar 29 2019 12:48:04 GMT+0000 (Greenwich Mean Time),1553863684769,42.1764,50,truth_value_judgements,all
6876,,5454,21,NA,,NA,implicature,NA,Graduated College,1553866215353,46,male,cooperative,english,NA,NA,true,false,NA,NA,NA,5c929a00e2826c0017166719,Some ants are insects.,true,NA,4,Fri Mar 29 2019 12:48:04 GMT+0000 (Greenwich Mean Time),1553863684769,42.1764,51,truth_value_judgements,some
6876,,5346,21,NA,,NA,true,NA,Graduated College,1553866215353,46,male,cooperative,english,NA,NA,true,false,NA,NA,NA,5c929a00e2826c0017166719,All books have pages.,true,NA,1,Fri Mar 29 2019 12:48:04 GMT+0000 (Greenwich Mean Time),1553863684769,42.1764,52,truth_value_judgements,all
6876,,6112,21,NA,,NA,bizarre,NA,Graduated College,1553866215353,46,male,cooperative,english,NA,NA,true,false,NA,NA,NA,5c929a00e2826c0017166719,Most tigers are literate.,false,NA,5,Fri Mar 29 2019 12:48:04 GMT+0000 (Greenwich Mean Time),1553863684769,42.1764,53,truth_value_judgements,most
6876,,10890,21,NA,,NA,implicature,NA,Graduated College,1553866215353,46,male,cooperative,english,NA,NA,true,false,NA,NA,NA,5c929a00e2826c0017166719,Most pigeons are birds.,true,NA,4,Fri Mar 29 2019 12:48:04 GMT+0000 (Greenwich Mean Time),1553863684769,42.1764,54,truth_value_judgements,most
6876,,5431,21,NA,,NA,bizarre,NA,Graduated College,1553866215353,46,male,cooperative,english,NA,NA,true,false,NA,NA,NA,5c929a00e2826c0017166719,The earth owns seven books.,false,NA,5,Fri Mar 29 2019 12:48:04 GMT+0000 (Greenwich Mean Time),1553863684769,42.1764,55,truth_value_judgements,number
6876,,5668,21,NA,,NA,true,NA,Graduated College,1553866215353,46,male,cooperative,english,NA,NA,true,false,NA,NA,NA,5c929a00e2826c0017166719,A week has seven days.,true,NA,3,Fri Mar 29 2019 12:48:04 GMT+0000 (Greenwich Mean Time),1553863684769,42.1764,56,truth_value_judgements,number
6876,,6653,21,NA,,NA,true,NA,Graduated College,1553866215353,46,male,cooperative,english,NA,NA,true,false,NA,NA,NA,5c929a00e2826c0017166719,Some dresses have pockets.,true,NA,2,Fri Mar 29 2019 12:48:04 GMT+0000 (Greenwich Mean Time),1553863684769,42.1764,57,truth_value_judgements,some
6876,,7229,21,NA,,NA,true,NA,Graduated College,1553866215353,46,male,cooperative,english,NA,NA,true,false,NA,NA,NA,5c929a00e2826c0017166719,All hammers have a handle.,true,NA,2,Fri Mar 29 2019 12:48:04 GMT+0000 (Greenwich Mean Time),1553863684769,42.1764,58,truth_value_judgements,all
6876,,5375,21,NA,,NA,bizarre,NA,Graduated College,1553866215353,46,male,cooperative,english,NA,NA,true,false,NA,NA,NA,5c929a00e2826c0017166719,Guitars have four legs.,false,NA,2,Fri Mar 29 2019 12:48:04 GMT+0000 (Greenwich Mean Time),1553863684769,42.1764,59,truth_value_judgements,number
6876,,5629,21,NA,,NA,true,NA,Graduated College,1553866215353,46,male,cooperative,english,NA,NA,true,false,NA,NA,NA,5c929a00e2826c0017166719,Humans have two eyes.,true,NA,5,Fri Mar 29 2019 12:48:04 GMT+0000 (Greenwich Mean Time),1553863684769,42.1764,60,truth_value_judgements,number
6875,NA,5737,39,NA,,NA,NA,73,Graduated College,1553864609285,46,male,cooperative,English,0,NA,NA,NA,NA,NA,images/Plate13.png,5acb5fd7f69e940001d9bec9,Please type the number you see in the picture above into the textbox. Please write 'none' if you do not see anything?,73,NA,NA,Fri Mar 29 2019 08:45:26 GMT-0400 (Eastern Daylight Time),1553863526910,18.039583333333333,1,color_blindness_test,NA
6875,NA,2519,39,NA,,NA,NA,12,Graduated College,1553864609285,46,male,cooperative,English,0,NA,NA,NA,NA,NA,images/Plate1.png,5acb5fd7f69e940001d9bec9,Please type the number you see in the picture above into the textbox. Please write 'none' if you do not see anything?,12,NA,NA,Fri Mar 29 2019 08:45:26 GMT-0400 (Eastern Daylight Time),1553863526910,18.039583333333333,2,color_blindness_test,NA
6875,NA,3251,39,NA,,NA,NA,45,Graduated College,1553864609285,46,male,cooperative,English,0,NA,NA,NA,NA,NA,images/Plate9.png,5acb5fd7f69e940001d9bec9,Please type the number you see in the picture above into the textbox. Please write 'none' if you do not see anything?,45,NA,NA,Fri Mar 29 2019 08:45:26 GMT-0400 (Eastern Daylight Time),1553863526910,18.039583333333333,3,color_blindness_test,NA
6875,NA,3274,39,NA,,NA,NA,NA,Graduated College,1553864609285,46,male,cooperative,English,NA,NA,red,green,NA,NA,NA,5acb5fd7f69e940001d9bec9,Which color is the box surrounding the bonus card?,green,NA,NA,Fri Mar 29 2019 08:45:26 GMT-0400 (Eastern Daylight Time),1553863526910,18.039583333333333,1,comprehension_test,NA
6875,NA,3993,39,NA,,NA,NA,NA,Graduated College,1553864609285,46,male,cooperative,English,NA,NA,yes,no,NA,NA,NA,5acb5fd7f69e940001d9bec9,Are you allowed to select words that make the whole descriptions false?,yes,NA,NA,Fri Mar 29 2019 08:45:26 GMT-0400 (Eastern Daylight Time),1553863526910,18.039583333333333,2,comprehension_test,NA
6875,NA,8133,39,NA,,NA,NA,NA,Graduated College,1553864609285,46,male,cooperative,English,NA,NA,help,mislead,NA,NA,NA,5acb5fd7f69e940001d9bec9,"Is your goal to help the guesser find the bonus card, or should you mislead the guesser to pick the other card instead?",help,NA,NA,Fri Mar 29 2019 08:45:26 GMT-0400 (Eastern Daylight Time),1553863526910,18.039583333333333,3,comprehension_test,NA
6875,NA,9519,39,semantic_bonus|semantic_no-bonus|false|false|contradiction|nonsense,,cakes|teapots|green|yellow|objects|clowns,none,NA,Graduated College,1553864609285,46,male,cooperative,English,NA,20,NA,NA,NA,NA,images/20NONE.PNG,5acb5fd7f69e940001d9bec9,NA,nonsense,On the bonus card none of the objects are,NA,Fri Mar 29 2019 08:45:26 GMT-0400 (Eastern Daylight Time),1553863526910,18.039583333333333,1,sentence_completion,NA
6875,NA,11453,39,pragmatic_bonus|pragmatic_no-bonus|false|false|tautology|nonsense,,green|pears|yellow|buckets|objects|clowns,number,NA,Graduated College,1553864609285,46,male,cooperative,English,NA,05,NA,NA,NA,NA,images/05NUM.PNG,5acb5fd7f69e940001d9bec9,NA,nonsense,On the bonus card six of the objects are,NA,Fri Mar 29 2019 08:45:26 GMT-0400 (Eastern Daylight Time),1553863526910,18.039583333333333,2,sentence_completion,NA
6875,NA,9522,39,pragmatic_bonus|pragmatic_no-bonus|false|false|tautology|nonsense,,blue|spoons|saws|yellow|objects|clowns,number,NA,Graduated College,1553864609285,46,male,cooperative,English,NA,03,NA,NA,NA,NA,images/03NUM.PNG,5acb5fd7f69e940001d9bec9,NA,pragmatic_bonus,On the bonus card five of the objects are,NA,Fri Mar 29 2019 08:45:26 GMT-0400 (Eastern Daylight Time),1553863526910,18.039583333333333,3,sentence_completion,NA
6875,NA,6341,39,semantic_bonus|semantic_no-bonus|false|false|contradiction|nonsense,,blue|pink|trucks|saxophones|objects|clowns,none,NA,Graduated College,1553864609285,46,male,cooperative,English,NA,23,NA,NA,NA,NA,images/23NONE.PNG,5acb5fd7f69e940001d9bec9,NA,nonsense,On the bonus card none of the objects are,NA,Fri Mar 29 2019 08:45:26 GMT-0400 (Eastern Daylight Time),1553863526910,18.039583333333333,4,sentence_completion,NA
6875,NA,11133,39,pragmatic_bonus|pragmatic_no-bonus|false|false|tautology|nonsense,,green|apples|guitars|yellow|objects|clowns,ad_hoc,NA,Graduated College,1553864609285,46,male,cooperative,English,NA,17,NA,NA,NA,NA,images/17HOC.PNG,5acb5fd7f69e940001d9bec9,NA,pragmatic_bonus,On the bonus card the objects in the middle row are,NA,Fri Mar 29 2019 08:45:26 GMT-0400 (Eastern Daylight Time),1553863526910,18.039583333333333,5,sentence_completion,NA
6875,NA,5999,39,pragmatic_bonus|pragmatic_no-bonus|false|false|tautology|nonsense,,yellow|forks|blue|leaves|objects|clowns,ad_hoc,NA,Graduated College,1553864609285,46,male,cooperative,English,NA,15,NA,NA,NA,NA,images/15HOC.PNG,5acb5fd7f69e940001d9bec9,NA,pragmatic_no-bonus,On the bonus card the objects in the bottom row are,NA,Fri Mar 29 2019 08:45:26 GMT-0400 (Eastern Daylight Time),1553863526910,18.039583333333333,6,sentence_completion,NA
6875,NA,5961,39,pragmatic_bonus|pragmatic_no-bonus|false|false|tautology|nonsense,,green|toasters|pink|boats|objects|clowns,number,NA,Graduated College,1553864609285,46,male,cooperative,English,NA,04,NA,NA,NA,NA,images/04NUM.PNG,5acb5fd7f69e940001d9bec9,NA,pragmatic_bonus,On the bonus card six of the objects are,NA,Fri Mar 29 2019 08:45:26 GMT-0400 (Eastern Daylight Time),1553863526910,18.039583333333333,7,sentence_completion,NA
6875,NA,7850,39,pragmatic_bonus|pragmatic_no-bonus|false|false|tautology|nonsense,,bathtubs|pink|candles|yellow|objects|clowns,number,NA,Graduated College,1553864609285,46,male,cooperative,English,NA,06,NA,NA,NA,NA,images/06NUM.PNG,5acb5fd7f69e940001d9bec9,NA,pragmatic_bonus,On the bonus card six of the objects are,NA,Fri Mar 29 2019 08:45:26 GMT-0400 (Eastern Daylight Time),1553863526910,18.039583333333333,8,sentence_completion,NA
6875,NA,4593,39,semantic_bonus|semantic_no-bonus|false|false|contradiction|nonsense,,green|yellow|brooms|brushes|objects|clowns,all,NA,Graduated College,1553864609285,46,male,cooperative,English,NA,29,NA,NA,NA,NA,images/29ALL.PNG,5acb5fd7f69e940001d9bec9,NA,semantic_bonus,On the bonus card all of the objects are,NA,Fri Mar 29 2019 08:45:26 GMT-0400 (Eastern Daylight Time),1553863526910,18.039583333333333,9,sentence_completion,NA
6875,NA,6010,39,pragmatic_bonus|pragmatic_no-bonus|false|false|tautology|nonsense,,pumpkins|blue|mugs|green|objects|clowns,number,NA,Graduated College,1553864609285,46,male,cooperative,English,NA,01,NA,NA,NA,NA,images/01NUM.PNG,5acb5fd7f69e940001d9bec9,NA,pragmatic_bonus,On the bonus card five of the objects are,NA,Fri Mar 29 2019 08:45:26 GMT-0400 (Eastern Daylight Time),1553863526910,18.039583333333333,10,sentence_completion,NA
6875,NA,6784,39,pragmatic_bonus|pragmatic_no-bonus|false|false|tautology|nonsense,,blue|kites|green|benches|objects|clowns,ad_hoc,NA,Graduated College,1553864609285,46,male,cooperative,English,NA,13,NA,NA,NA,NA,images/13HOC.PNG,5acb5fd7f69e940001d9bec9,NA,pragmatic_bonus,On the bonus card the objects in the top row are,NA,Fri Mar 29 2019 08:45:26 GMT-0400 (Eastern Daylight Time),1553863526910,18.039583333333333,11,sentence_completion,NA
6875,NA,6036,39,pragmatic_bonus|pragmatic_no-bonus|false|false|tautology|nonsense,,beds|blue|donuts|green|objects|clowns,most,NA,Graduated College,1553864609285,46,male,cooperative,English,NA,10,NA,NA,NA,NA,images/10MOST.PNG,5acb5fd7f69e940001d9bec9,NA,pragmatic_bonus,On the bonus card most of the objects are,NA,Fri Mar 29 2019 08:45:26 GMT-0400 (Eastern Daylight Time),1553863526910,18.039583333333333,12,sentence_completion,NA
6875,NA,5844,39,semantic_bonus|semantic_no-bonus|false|false|contradiction|nonsense,,kettles|bananas|blue|green|objects|clowns,none,NA,Graduated College,1553864609285,46,male,cooperative,English,NA,22,NA,NA,NA,NA,images/22NONE.PNG,5acb5fd7f69e940001d9bec9,NA,nonsense,On the bonus card none of the objects are,NA,Fri Mar 29 2019 08:45:26 GMT-0400 (Eastern Daylight Time),1553863526910,18.039583333333333,13,sentence_completion,NA
6875,NA,7699,39,semantic_bonus|semantic_no-bonus|false|false|contradiction|nonsense,,blue|yellow|acorns|boots|objects|clowns,none,NA,Graduated College,1553864609285,46,male,cooperative,English,NA,27,NA,NA,NA,NA,images/27NONE.PNG,5acb5fd7f69e940001d9bec9,NA,nonsense,On the bonus card none of the objects are,NA,Fri Mar 29 2019 08:45:26 GMT-0400 (Eastern Daylight Time),1553863526910,18.039583333333333,14,sentence_completion,NA
6875,NA,6729,39,semantic_bonus|semantic_no-bonus|false|false|contradiction|nonsense,,shoes|trophies|pink|yellow|objects|clowns,all,NA,Graduated College,1553864609285,46,male,cooperative,English,NA,30,NA,NA,NA,NA,images/30ALL.PNG,5acb5fd7f69e940001d9bec9,NA,semantic_bonus,On the bonus card all of the objects are,NA,Fri Mar 29 2019 08:45:26 GMT-0400 (Eastern Daylight Time),1553863526910,18.039583333333333,15,sentence_completion,NA
6875,NA,5714,39,semantic_bonus|semantic_no-bonus|false|false|contradiction|nonsense,,drums|tents|green|yellow|objects|clowns,all,NA,Graduated College,1553864609285,46,male,cooperative,English,NA,32,NA,NA,NA,NA,images/32ALL.PNG,5acb5fd7f69e940001d9bec9,NA,semantic_bonus,On the bonus card all of the objects are,NA,Fri Mar 29 2019 08:45:26 GMT-0400 (Eastern Daylight Time),1553863526910,18.039583333333333,16,sentence_completion,NA
6875,NA,5589,39,pragmatic_bonus|pragmatic_no-bonus|false|false|tautology|nonsense,,pineapples|pink|blue|socks|objects|clowns,number,NA,Graduated College,1553864609285,46,male,cooperative,English,NA,02,NA,NA,NA,NA,images/02NUM.PNG,5acb5fd7f69e940001d9bec9,NA,pragmatic_bonus,On the bonus card five of the objects are,NA,Fri Mar 29 2019 08:45:26 GMT-0400 (Eastern Daylight Time),1553863526910,18.039583333333333,17,sentence_completion,NA
6875,NA,9248,39,pragmatic_bonus|pragmatic_no-bonus|false|false|tautology|nonsense,,pink|keys|bowties|green|objects|clowns,most,NA,Graduated College,1553864609285,46,male,cooperative,English,NA,07,NA,NA,NA,NA,images/07MOST.PNG,5acb5fd7f69e940001d9bec9,NA,pragmatic_no-bonus,On the bonus card most of the objects are,NA,Fri Mar 29 2019 08:45:26 GMT-0400 (Eastern Daylight Time),1553863526910,18.039583333333333,18,sentence_completion,NA
6875,NA,4656,39,semantic_bonus|semantic_no-bonus|false|false|contradiction|nonsense,,bottles|bikes|yellow|blue|objects|clowns,all,NA,Graduated College,1553864609285,46,male,cooperative,English,NA,36,NA,NA,NA,NA,images/36ALL.PNG,5acb5fd7f69e940001d9bec9,NA,semantic_bonus,On the bonus card all of the objects are,NA,Fri Mar 29 2019 08:45:26 GMT-0400 (Eastern Daylight Time),1553863526910,18.039583333333333,19,sentence_completion,NA
6875,NA,9684,39,semantic_bonus|semantic_no-bonus|false|false|contradiction|nonsense,,green|pink|mail boxes|light bulbs|objects|clowns,none,NA,Graduated College,1553864609285,46,male,cooperative,English,NA,19,NA,NA,NA,NA,images/19NONE.PNG,5acb5fd7f69e940001d9bec9,NA,semantic_bonus,On the bonus card none of the objects are,NA,Fri Mar 29 2019 08:45:26 GMT-0400 (Eastern Daylight Time),1553863526910,18.039583333333333,20,sentence_completion,NA
6875,NA,8144,39,pragmatic_bonus|pragmatic_no-bonus|false|false|tautology|nonsense,,vases|pink|green|diamonds|objects|clowns,ad_hoc,NA,Graduated College,1553864609285,46,male,cooperative,English,NA,16,NA,NA,NA,NA,images/16HOC.PNG,5acb5fd7f69e940001d9bec9,NA,pragmatic_no-bonus,On the bonus card the objects in the top row are,NA,Fri Mar 29 2019 08:45:26 GMT-0400 (Eastern Daylight Time),1553863526910,18.039583333333333,21,sentence_completion,NA
6875,NA,22926,39,pragmatic_bonus|pragmatic_no-bonus|false|false|tautology|nonsense,,crowns|blue|pink|pistols|objects|clowns,ad_hoc,NA,Graduated College,1553864609285,46,male,cooperative,English,NA,14,NA,NA,NA,NA,images/14HOC.PNG,5acb5fd7f69e940001d9bec9,NA,pragmatic_no-bonus,On the bonus card the objects in the middle row are,NA,Fri Mar 29 2019 08:45:26 GMT-0400 (Eastern Daylight Time),1553863526910,18.039583333333333,22,sentence_completion,NA
6875,NA,13569,39,pragmatic_bonus|pragmatic_no-bonus|false|false|tautology|nonsense,,pink|books|hammers|blue|objects|clowns,most,NA,Graduated College,1553864609285,46,male,cooperative,English,NA,11,NA,NA,NA,NA,images/11MOST.PNG,5acb5fd7f69e940001d9bec9,NA,pragmatic_no-bonus,On the bonus card most of the objects are,NA,Fri Mar 29 2019 08:45:26 GMT-0400 (Eastern Daylight Time),1553863526910,18.039583333333333,23,sentence_completion,NA
6875,NA,8390,39,semantic_bonus|semantic_no-bonus|false|false|contradiction|nonsense,,trumpets|carrots|green|blue|objects|clowns,all,NA,Graduated College,1553864609285,46,male,cooperative,English,NA,34,NA,NA,NA,NA,images/34ALL.PNG,5acb5fd7f69e940001d9bec9,NA,semantic_bonus,On the bonus card all of the objects are,NA,Fri Mar 29 2019 08:45:26 GMT-0400 (Eastern Daylight Time),1553863526910,18.039583333333333,24,sentence_completion,NA
6875,NA,15816,39,semantic_bonus|semantic_no-bonus|false|false|contradiction|nonsense,,blue|pink|feathers|vases|objects|clowns,all,NA,Graduated College,1553864609285,46,male,cooperative,English,NA,35,NA,NA,NA,NA,images/35ALL.PNG,5acb5fd7f69e940001d9bec9,NA,semantic_bonus,On the bonus card all of the objects are,NA,Fri Mar 29 2019 08:45:26 GMT-0400 (Eastern Daylight Time),1553863526910,18.039583333333333,25,sentence_completion,NA
6875,NA,7494,39,pragmatic_bonus|pragmatic_no-bonus|false|false|tautology|nonsense,,lamps|yellow|green|phones|objects|clowns,most,NA,Graduated College,1553864609285,46,male,cooperative,English,NA,08,NA,NA,NA,NA,images/08MOST.PNG,5acb5fd7f69e940001d9bec9,NA,pragmatic_no-bonus,On the bonus card most of the objects are,NA,Fri Mar 29 2019 08:45:26 GMT-0400 (Eastern Daylight Time),1553863526910,18.039583333333333,26,sentence_completion,NA
6875,NA,11102,39,semantic_bonus|semantic_no-bonus|false|false|contradiction|nonsense,,blue|green|envelopes|helicopters|objects|clowns,none,NA,Graduated College,1553864609285,46,male,cooperative,English,NA,25,NA,NA,NA,NA,images/25NONE.PNG,5acb5fd7f69e940001d9bec9,NA,semantic_bonus,On the bonus card none of the objects are,NA,Fri Mar 29 2019 08:45:26 GMT-0400 (Eastern Daylight Time),1553863526910,18.039583333333333,27,sentence_completion,NA
6875,NA,14950,39,semantic_bonus|semantic_no-bonus|false|false|contradiction|nonsense,,pans|jars|yellow|blue|objects|clowns,none,NA,Graduated College,1553864609285,46,male,cooperative,English,NA,24,NA,NA,NA,NA,images/24NONE.PNG,5acb5fd7f69e940001d9bec9,NA,semantic_no-bonus,On the bonus card none of the objects are,NA,Fri Mar 29 2019 08:45:26 GMT-0400 (Eastern Daylight Time),1553863526910,18.039583333333333,28,sentence_completion,NA
6875,NA,2147,39,pragmatic_bonus|pragmatic_no-bonus|false|false|tautology|nonsense,,pink|bells|yellow|hourglasses|objects|clowns,ad_hoc,NA,Graduated College,1553864609285,46,male,cooperative,English,NA,18,NA,NA,NA,NA,images/18HOC.PNG,5acb5fd7f69e940001d9bec9,NA,pragmatic_no-bonus,On the bonus card the objects in the bottom row are,NA,Fri Mar 29 2019 08:45:26 GMT-0400 (Eastern Daylight Time),1553863526910,18.039583333333333,29,sentence_completion,NA
6875,NA,1919,39,semantic_bonus|semantic_no-bonus|false|false|contradiction|nonsense,,umbrellas|rockets|green|pink|objects|clowns,all,NA,Graduated College,1553864609285,46,male,cooperative,English,NA,28,NA,NA,NA,NA,images/28ALL.PNG,5acb5fd7f69e940001d9bec9,NA,semantic_bonus,On the bonus card all of the objects are,NA,Fri Mar 29 2019 08:45:26 GMT-0400 (Eastern Daylight Time),1553863526910,18.039583333333333,30,sentence_completion,NA
6875,NA,2589,39,pragmatic_bonus|pragmatic_no-bonus|false|false|tautology|nonsense,,flowers|blue|yellow|scissors|objects|clowns,most,NA,Graduated College,1553864609285,46,male,cooperative,English,NA,12,NA,NA,NA,NA,images/12MOST.PNG,5acb5fd7f69e940001d9bec9,NA,false,On the bonus card most of the objects are,NA,Fri Mar 29 2019 08:45:26 GMT-0400 (Eastern Daylight Time),1553863526910,18.039583333333333,31,sentence_completion,NA
6875,NA,7097,39,semantic_bonus|semantic_no-bonus|false|false|contradiction|nonsense,,pink|yellow|onions|rackets|objects|clowns,none,NA,Graduated College,1553864609285,46,male,cooperative,English,NA,21,NA,NA,NA,NA,images/21NONE.PNG,5acb5fd7f69e940001d9bec9,NA,false,On the bonus card none of the objects are,NA,Fri Mar 29 2019 08:45:26 GMT-0400 (Eastern Daylight Time),1553863526910,18.039583333333333,32,sentence_completion,NA
6875,NA,2367,39,semantic_bonus|semantic_no-bonus|false|false|contradiction|nonsense,,cars|sofas|blue|pink|objects|clowns,none,NA,Graduated College,1553864609285,46,male,cooperative,English,NA,26,NA,NA,NA,NA,images/26NONE.PNG,5acb5fd7f69e940001d9bec9,NA,semantic_no-bonus,On the bonus card none of the objects are,NA,Fri Mar 29 2019 08:45:26 GMT-0400 (Eastern Daylight Time),1553863526910,18.039583333333333,33,sentence_completion,NA
6875,NA,3380,39,pragmatic_bonus|pragmatic_no-bonus|false|false|tautology|nonsense,,yellow|flags|pink|sandwiches|objects|clowns,most,NA,Graduated College,1553864609285,46,male,cooperative,English,NA,09,NA,NA,NA,NA,images/09MOST.PNG,5acb5fd7f69e940001d9bec9,NA,false,On the bonus card most of the objects are,NA,Fri Mar 29 2019 08:45:26 GMT-0400 (Eastern Daylight Time),1553863526910,18.039583333333333,34,sentence_completion,NA
6875,NA,3517,39,semantic_bonus|semantic_no-bonus|false|false|contradiction|nonsense,,yellow|pink|combs|irons|objects|clowns,all,NA,Graduated College,1553864609285,46,male,cooperative,English,NA,33,NA,NA,NA,NA,images/33ALL.PNG,5acb5fd7f69e940001d9bec9,NA,semantic_bonus,On the bonus card all of the objects are,NA,Fri Mar 29 2019 08:45:26 GMT-0400 (Eastern Daylight Time),1553863526910,18.039583333333333,35,sentence_completion,NA
6875,NA,3537,39,semantic_bonus|semantic_no-bonus|false|false|contradiction|nonsense,,pink|green|TVs|fans|objects|clowns,all,NA,Graduated College,1553864609285,46,male,cooperative,English,NA,31,NA,NA,NA,NA,images/31ALL.PNG,5acb5fd7f69e940001d9bec9,NA,semantic_bonus,On the bonus card all of the objects are,NA,Fri Mar 29 2019 08:45:26 GMT-0400 (Eastern Daylight Time),1553863526910,18.039583333333333,36,sentence_completion,NA
6875,NA,7346,39,NA,,NA,NA,NA,Graduated College,1553864609285,46,male,cooperative,English,NA,NA,NA,NA,0%,100%,NA,5acb5fd7f69e940001d9bec9,NA,75,NA,NA,Fri Mar 29 2019 08:45:26 GMT-0400 (Eastern Daylight Time),1553863526910,18.039583333333333,1,performance_rating,NA
6875,,5861,39,NA,,NA,bizarre,NA,Graduated College,1553864609285,46,male,cooperative,English,NA,NA,true,false,NA,NA,NA,5acb5fd7f69e940001d9bec9,Guitars have four legs.,false,NA,2,Fri Mar 29 2019 08:45:26 GMT-0400 (Eastern Daylight Time),1553863526910,18.039583333333333,1,truth_value_judgements,number
6875,,5659,39,NA,,NA,bizarre,NA,Graduated College,1553864609285,46,male,cooperative,English,NA,NA,true,false,NA,NA,NA,5acb5fd7f69e940001d9bec9,Most tigers are literate.,false,NA,5,Fri Mar 29 2019 08:45:26 GMT-0400 (Eastern Daylight Time),1553863526910,18.039583333333333,2,truth_value_judgements,most
6875,,5659,39,NA,,NA,bizarre,NA,Graduated College,1553864609285,46,male,cooperative,English,NA,NA,true,false,NA,NA,NA,5acb5fd7f69e940001d9bec9,Some children are made of feathers.,false,NA,5,Fri Mar 29 2019 08:45:26 GMT-0400 (Eastern Daylight Time),1553863526910,18.039583333333333,3,truth_value_judgements,some
6875,,5539,39,NA,,NA,true,NA,Graduated College,1553864609285,46,male,cooperative,English,NA,NA,true,false,NA,NA,NA,5acb5fd7f69e940001d9bec9,All salmon are fish.,true,NA,6,Fri Mar 29 2019 08:45:26 GMT-0400 (Eastern Daylight Time),1553863526910,18.039583333333333,4,truth_value_judgements,all
6875,,5360,39,NA,,NA,bizarre,NA,Graduated College,1553864609285,46,male,cooperative,English,NA,NA,true,false,NA,NA,NA,5acb5fd7f69e940001d9bec9,Most motorcycles like music.,false,NA,3,Fri Mar 29 2019 08:45:26 GMT-0400 (Eastern Daylight Time),1553863526910,18.039583333333333,5,truth_value_judgements,most
6875,,5409,39,NA,,NA,bizarre,NA,Graduated College,1553864609285,46,male,cooperative,English,NA,NA,true,false,NA,NA,NA,5acb5fd7f69e940001d9bec9,The earth owns seven books.,false,NA,5,Fri Mar 29 2019 08:45:26 GMT-0400 (Eastern Daylight Time),1553863526910,18.039583333333333,6,truth_value_judgements,number
6875,,5438,39,NA,,NA,implicature,NA,Graduated College,1553864609285,46,male,cooperative,English,NA,NA,true,false,NA,NA,NA,5acb5fd7f69e940001d9bec9,Most elephants are mammals.,true,NA,5,Fri Mar 29 2019 08:45:26 GMT-0400 (Eastern Daylight Time),1553863526910,18.039583333333333,7,truth_value_judgements,most
6875,,5455,39,NA,,NA,true,NA,Graduated College,1553864609285,46,male,cooperative,English,NA,NA,true,false,NA,NA,NA,5acb5fd7f69e940001d9bec9,Most horses are tame.,true,NA,5,Fri Mar 29 2019 08:45:26 GMT-0400 (Eastern Daylight Time),1553863526910,18.039583333333333,8,truth_value_judgements,most
6875,,8077,39,NA,,NA,true,NA,Graduated College,1553864609285,46,male,cooperative,English,NA,NA,true,false,NA,NA,NA,5acb5fd7f69e940001d9bec9,Most days in a year are working days.,true,NA,3,Fri Mar 29 2019 08:45:26 GMT-0400 (Eastern Daylight Time),1553863526910,18.039583333333333,9,truth_value_judgements,most
6875,,5479,39,NA,,NA,bizarre,NA,Graduated College,1553864609285,46,male,cooperative,English,NA,NA,true,false,NA,NA,NA,5acb5fd7f69e940001d9bec9,All garages sing.,false,NA,4,Fri Mar 29 2019 08:45:26 GMT-0400 (Eastern Daylight Time),1553863526910,18.039583333333333,10,truth_value_judgements,all
6875,,6019,39,NA,,NA,true,NA,Graduated College,1553864609285,46,male,cooperative,English,NA,NA,true,false,NA,NA,NA,5acb5fd7f69e940001d9bec9,Some children are blond.,true,NA,4,Fri Mar 29 2019 08:45:26 GMT-0400 (Eastern Daylight Time),1553863526910,18.039583333333333,11,truth_value_judgements,some
6875,,5827,39,NA,,NA,bizarre,NA,Graduated College,1553864609285,46,male,cooperative,English,NA,NA,true,false,NA,NA,NA,5acb5fd7f69e940001d9bec9,All birds have telephones.,false,NA,1,Fri Mar 29 2019 08:45:26 GMT-0400 (Eastern Daylight Time),1553863526910,18.039583333333333,12,truth_value_judgements,all
6875,,5613,39,NA,,NA,bizarre,NA,Graduated College,1553864609285,46,male,cooperative,English,NA,NA,true,false,NA,NA,NA,5acb5fd7f69e940001d9bec9,All couches have windows.,false,NA,5,Fri Mar 29 2019 08:45:26 GMT-0400 (Eastern Daylight Time),1553863526910,18.039583333333333,13,truth_value_judgements,all
6875,,5929,39,NA,,NA,true,NA,Graduated College,1553864609285,46,male,cooperative,English,NA,NA,true,false,NA,NA,NA,5acb5fd7f69e940001d9bec9,All elephants have trunks.,true,NA,4,Fri Mar 29 2019 08:45:26 GMT-0400 (Eastern Daylight Time),1553863526910,18.039583333333333,14,truth_value_judgements,all
6875,,5682,39,NA,,NA,true,NA,Graduated College,1553864609285,46,male,cooperative,English,NA,NA,true,false,NA,NA,NA,5acb5fd7f69e940001d9bec9,All robins have wings.,true,NA,3,Fri Mar 29 2019 08:45:26 GMT-0400 (Eastern Daylight Time),1553863526910,18.039583333333333,15,truth_value_judgements,all
6875,,5409,39,NA,,NA,implicature,NA,Graduated College,1553864609285,46,male,cooperative,English,NA,NA,true,false,NA,NA,NA,5acb5fd7f69e940001d9bec9,Some owls are birds.,true,NA,3,Fri Mar 29 2019 08:45:26 GMT-0400 (Eastern Daylight Time),1553863526910,18.039583333333333,16,truth_value_judgements,some
6875,,5435,39,NA,,NA,implicature,NA,Graduated College,1553864609285,46,male,cooperative,English,NA,NA,true,false,NA,NA,NA,5acb5fd7f69e940001d9bec9,Some lizards are reptiles.,true,NA,2,Fri Mar 29 2019 08:45:26 GMT-0400 (Eastern Daylight Time),1553863526910,18.039583333333333,17,truth_value_judgements,some
6875,,5411,39,NA,,NA,true,NA,Graduated College,1553864609285,46,male,cooperative,English,NA,NA,true,false,NA,NA,NA,5acb5fd7f69e940001d9bec9,Some tools are made of wood..,true,NA,3,Fri Mar 29 2019 08:45:26 GMT-0400 (Eastern Daylight Time),1553863526910,18.039583333333333,18,truth_value_judgements,some
6875,,5377,39,NA,,NA,implicature,NA,Graduated College,1553864609285,46,male,cooperative,English,NA,NA,true,false,NA,NA,NA,5acb5fd7f69e940001d9bec9,A human hand has two fingers.,false,NA,2,Fri Mar 29 2019 08:45:26 GMT-0400 (Eastern Daylight Time),1553863526910,18.039583333333333,19,truth_value_judgements,number
6875,,5468,39,NA,,NA,bizarre,NA,Graduated College,1553864609285,46,male,cooperative,English,NA,NA,true,false,NA,NA,NA,5acb5fd7f69e940001d9bec9,Most sofas are friendly.,true,NA,4,Fri Mar 29 2019 08:45:26 GMT-0400 (Eastern Daylight Time),1553863526910,18.039583333333333,20,truth_value_judgements,most
6875,,5478,39,NA,,NA,true,NA,Graduated College,1553864609285,46,male,cooperative,English,NA,NA,true,false,NA,NA,NA,5acb5fd7f69e940001d9bec9,All dogs are mammals.,true,NA,9,Fri Mar 29 2019 08:45:26 GMT-0400 (Eastern Daylight Time),1553863526910,18.039583333333333,21,truth_value_judgements,all
6875,,5455,39,NA,,NA,bizarre,NA,Graduated College,1553864609285,46,male,cooperative,English,NA,NA,true,false,NA,NA,NA,5acb5fd7f69e940001d9bec9,Most elephants have glasses.,false,NA,1,Fri Mar 29 2019 08:45:26 GMT-0400 (Eastern Daylight Time),1553863526910,18.039583333333333,22,truth_value_judgements,most
6875,,5556,39,NA,,NA,bizarre,NA,Graduated College,1553864609285,46,male,cooperative,English,NA,NA,true,false,NA,NA,NA,5acb5fd7f69e940001d9bec9,The moon has two ears.,false,NA,1,Fri Mar 29 2019 08:45:26 GMT-0400 (Eastern Daylight Time),1553863526910,18.039583333333333,23,truth_value_judgements,number
6875,,5525,39,NA,,NA,true,NA,Graduated College,1553864609285,46,male,cooperative,English,NA,NA,true,false,NA,NA,NA,5acb5fd7f69e940001d9bec9,All beetles are insects.,true,NA,10,Fri Mar 29 2019 08:45:26 GMT-0400 (Eastern Daylight Time),1553863526910,18.039583333333333,24,truth_value_judgements,all
6875,,5747,39,NA,,NA,bizarre,NA,Graduated College,1553864609285,46,male,cooperative,English,NA,NA,true,false,NA,NA,NA,5acb5fd7f69e940001d9bec9,A week consists of five people.,false,NA,4,Fri Mar 29 2019 08:45:26 GMT-0400 (Eastern Daylight Time),1553863526910,18.039583333333333,25,truth_value_judgements,number
6875,,5502,39,NA,,NA,true,NA,Graduated College,1553864609285,46,male,cooperative,English,NA,NA,true,false,NA,NA,NA,5acb5fd7f69e940001d9bec9,A week has seven days.,true,NA,3,Fri Mar 29 2019 08:45:26 GMT-0400 (Eastern Daylight Time),1553863526910,18.039583333333333,26,truth_value_judgements,number
6875,,5366,39,NA,,NA,true,NA,Graduated College,1553864609285,46,male,cooperative,English,NA,NA,true,false,NA,NA,NA,5acb5fd7f69e940001d9bec9,Some flowers are yellow.,true,NA,1,Fri Mar 29 2019 08:45:26 GMT-0400 (Eastern Daylight Time),1553863526910,18.039583333333333,27,truth_value_judgements,some
6875,,5479,39,NA,,NA,implicature,NA,Graduated College,1553864609285,46,male,cooperative,English,NA,NA,true,false,NA,NA,NA,5acb5fd7f69e940001d9bec9,Most horses are mammals.,true,NA,2,Fri Mar 29 2019 08:45:26 GMT-0400 (Eastern Daylight Time),1553863526910,18.039583333333333,28,truth_value_judgements,most
6875,,5659,39,NA,,NA,bizarre,NA,Graduated College,1553864609285,46,male,cooperative,English,NA,NA,true,false,NA,NA,NA,5acb5fd7f69e940001d9bec9,All chairs tell time.,false,NA,3,Fri Mar 29 2019 08:45:26 GMT-0400 (Eastern Daylight Time),1553863526910,18.039583333333333,29,truth_value_judgements,all
6875,,5546,39,NA,,NA,true,NA,Graduated College,1553864609285,46,male,cooperative,English,NA,NA,true,false,NA,NA,NA,5acb5fd7f69e940001d9bec9,All refrigerators have doors.,true,NA,5,Fri Mar 29 2019 08:45:26 GMT-0400 (Eastern Daylight Time),1553863526910,18.039583333333333,30,truth_value_judgements,all
6875,,5556,39,NA,,NA,true,NA,Graduated College,1553864609285,46,male,cooperative,English,NA,NA,true,false,NA,NA,NA,5acb5fd7f69e940001d9bec9,Some dresses have pockets.,true,NA,2,Fri Mar 29 2019 08:45:26 GMT-0400 (Eastern Daylight Time),1553863526910,18.039583333333333,31,truth_value_judgements,some
6875,,5469,39,NA,,NA,true,NA,Graduated College,1553864609285,46,male,cooperative,English,NA,NA,true,false,NA,NA,NA,5acb5fd7f69e940001d9bec9,Cats have four legs.,true,NA,4,Fri Mar 29 2019 08:45:26 GMT-0400 (Eastern Daylight Time),1553863526910,18.039583333333333,32,truth_value_judgements,number
6875,,5590,39,NA,,NA,bizarre,NA,Graduated College,1553864609285,46,male,cooperative,English,NA,NA,true,false,NA,NA,NA,5acb5fd7f69e940001d9bec9,Some stores are made of bubbles.,false,NA,4,Fri Mar 29 2019 08:45:26 GMT-0400 (Eastern Daylight Time),1553863526910,18.039583333333333,33,truth_value_judgements,some
6875,,5839,39,NA,,NA,implicature,NA,Graduated College,1553864609285,46,male,cooperative,English,NA,NA,true,false,NA,NA,NA,5acb5fd7f69e940001d9bec9,Some cats are mammals.,true,NA,5,Fri Mar 29 2019 08:45:26 GMT-0400 (Eastern Daylight Time),1553863526910,18.039583333333333,34,truth_value_judgements,some
