submission_id,QUD,RT,age,answer_category,comments,completions,condition,correct,education,endTime,experiment_id,gender,glb_condition,languages,min_chars,number,option1,option2,optionLeft,optionRight,picture,prolific_id,question,response,sentence_fragment,sentence_nr,startDate,startTime,timeSpent,trial_number,trial_type,trigger
6856,NA,3959,28,NA,"I'm grateful I wasn't paired with someone because I thought they must have been sitting there going ""damn this dude is stupid""",NA,NA,45,Graduated College,1553706760856,46,male,cooperative,English,0,NA,NA,NA,NA,NA,images/Plate9.png,5b5e812f856e8900019451f6,Please type the number you see in the picture above into the textbox. Please write 'none' if you do not see anything?,45,NA,NA,Wed Mar 27 2019 12:59:04 GMT-0400 (Eastern Daylight Time),1553705944284,13.609533333333333,1,color_blindness_test,NA
6856,NA,2487,28,NA,"I'm grateful I wasn't paired with someone because I thought they must have been sitting there going ""damn this dude is stupid""",NA,NA,12,Graduated College,1553706760856,46,male,cooperative,English,0,NA,NA,NA,NA,NA,images/Plate1.png,5b5e812f856e8900019451f6,Please type the number you see in the picture above into the textbox. Please write 'none' if you do not see anything?,12,NA,NA,Wed Mar 27 2019 12:59:04 GMT-0400 (Eastern Daylight Time),1553705944284,13.609533333333333,2,color_blindness_test,NA
6856,NA,4928,28,NA,"I'm grateful I wasn't paired with someone because I thought they must have been sitting there going ""damn this dude is stupid""",NA,NA,73,Graduated College,1553706760856,46,male,cooperative,English,0,NA,NA,NA,NA,NA,images/Plate13.png,5b5e812f856e8900019451f6,Please type the number you see in the picture above into the textbox. Please write 'none' if you do not see anything?,73,NA,NA,Wed Mar 27 2019 12:59:04 GMT-0400 (Eastern Daylight Time),1553705944284,13.609533333333333,3,color_blindness_test,NA
6856,NA,4328,28,NA,"I'm grateful I wasn't paired with someone because I thought they must have been sitting there going ""damn this dude is stupid""",NA,NA,NA,Graduated College,1553706760856,46,male,cooperative,English,NA,NA,red,green,NA,NA,NA,5b5e812f856e8900019451f6,Which color is the box surrounding the bonus card?,green,NA,NA,Wed Mar 27 2019 12:59:04 GMT-0400 (Eastern Daylight Time),1553705944284,13.609533333333333,1,comprehension_test,NA
6856,NA,3096,28,NA,"I'm grateful I wasn't paired with someone because I thought they must have been sitting there going ""damn this dude is stupid""",NA,NA,NA,Graduated College,1553706760856,46,male,cooperative,English,NA,NA,yes,no,NA,NA,NA,5b5e812f856e8900019451f6,Are you allowed to select words that make the whole descriptions false?,yes,NA,NA,Wed Mar 27 2019 12:59:04 GMT-0400 (Eastern Daylight Time),1553705944284,13.609533333333333,2,comprehension_test,NA
6856,NA,3407,28,NA,"I'm grateful I wasn't paired with someone because I thought they must have been sitting there going ""damn this dude is stupid""",NA,NA,NA,Graduated College,1553706760856,46,male,cooperative,English,NA,NA,help,mislead,NA,NA,NA,5b5e812f856e8900019451f6,"Is your goal to help the guesser find the bonus card, or should you mislead the guesser to pick the other card instead?",help,NA,NA,Wed Mar 27 2019 12:59:04 GMT-0400 (Eastern Daylight Time),1553705944284,13.609533333333333,3,comprehension_test,NA
6856,NA,18066,28,semantic_bonus|semantic_no-bonus|false|false|contradiction|nonsense,"I'm grateful I wasn't paired with someone because I thought they must have been sitting there going ""damn this dude is stupid""",blue|pink|trucks|saxophones|objects|clowns,none,NA,Graduated College,1553706760856,46,male,cooperative,English,NA,23,NA,NA,NA,NA,images/23NONE.PNG,5b5e812f856e8900019451f6,NA,semantic_bonus,On the bonus card none of the objects are,NA,Wed Mar 27 2019 12:59:04 GMT-0400 (Eastern Daylight Time),1553705944284,13.609533333333333,1,sentence_completion,NA
6856,NA,5741,28,semantic_bonus|semantic_no-bonus|false|false|contradiction|nonsense,"I'm grateful I wasn't paired with someone because I thought they must have been sitting there going ""damn this dude is stupid""",shoes|trophies|pink|yellow|objects|clowns,all,NA,Graduated College,1553706760856,46,male,cooperative,English,NA,30,NA,NA,NA,NA,images/30ALL.PNG,5b5e812f856e8900019451f6,NA,semantic_bonus,On the bonus card all of the objects are,NA,Wed Mar 27 2019 12:59:04 GMT-0400 (Eastern Daylight Time),1553705944284,13.609533333333333,2,sentence_completion,NA
6856,NA,21525,28,pragmatic_bonus|pragmatic_no-bonus|false|false|tautology|nonsense,"I'm grateful I wasn't paired with someone because I thought they must have been sitting there going ""damn this dude is stupid""",pink|bells|yellow|hourglasses|objects|clowns,ad_hoc,NA,Graduated College,1553706760856,46,male,cooperative,English,NA,18,NA,NA,NA,NA,images/18HOC.PNG,5b5e812f856e8900019451f6,NA,pragmatic_bonus,On the bonus card the objects in the bottom row are,NA,Wed Mar 27 2019 12:59:04 GMT-0400 (Eastern Daylight Time),1553705944284,13.609533333333333,3,sentence_completion,NA
6856,NA,5315,28,semantic_bonus|semantic_no-bonus|false|false|contradiction|nonsense,"I'm grateful I wasn't paired with someone because I thought they must have been sitting there going ""damn this dude is stupid""",green|yellow|brooms|brushes|objects|clowns,all,NA,Graduated College,1553706760856,46,male,cooperative,English,NA,29,NA,NA,NA,NA,images/29ALL.PNG,5b5e812f856e8900019451f6,NA,semantic_bonus,On the bonus card all of the objects are,NA,Wed Mar 27 2019 12:59:04 GMT-0400 (Eastern Daylight Time),1553705944284,13.609533333333333,4,sentence_completion,NA
6856,NA,3221,28,semantic_bonus|semantic_no-bonus|false|false|contradiction|nonsense,"I'm grateful I wasn't paired with someone because I thought they must have been sitting there going ""damn this dude is stupid""",trumpets|carrots|green|blue|objects|clowns,all,NA,Graduated College,1553706760856,46,male,cooperative,English,NA,34,NA,NA,NA,NA,images/34ALL.PNG,5b5e812f856e8900019451f6,NA,semantic_bonus,On the bonus card all of the objects are,NA,Wed Mar 27 2019 12:59:04 GMT-0400 (Eastern Daylight Time),1553705944284,13.609533333333333,5,sentence_completion,NA
6856,NA,14013,28,pragmatic_bonus|pragmatic_no-bonus|false|false|tautology|nonsense,"I'm grateful I wasn't paired with someone because I thought they must have been sitting there going ""damn this dude is stupid""",pink|books|hammers|blue|objects|clowns,most,NA,Graduated College,1553706760856,46,male,cooperative,English,NA,11,NA,NA,NA,NA,images/11MOST.PNG,5b5e812f856e8900019451f6,NA,pragmatic_no-bonus,On the bonus card most of the objects are,NA,Wed Mar 27 2019 12:59:04 GMT-0400 (Eastern Daylight Time),1553705944284,13.609533333333333,6,sentence_completion,NA
6856,NA,6984,28,pragmatic_bonus|pragmatic_no-bonus|false|false|tautology|nonsense,"I'm grateful I wasn't paired with someone because I thought they must have been sitting there going ""damn this dude is stupid""",beds|blue|donuts|green|objects|clowns,most,NA,Graduated College,1553706760856,46,male,cooperative,English,NA,10,NA,NA,NA,NA,images/10MOST.PNG,5b5e812f856e8900019451f6,NA,pragmatic_no-bonus,On the bonus card most of the objects are,NA,Wed Mar 27 2019 12:59:04 GMT-0400 (Eastern Daylight Time),1553705944284,13.609533333333333,7,sentence_completion,NA
6856,NA,7609,28,pragmatic_bonus|pragmatic_no-bonus|false|false|tautology|nonsense,"I'm grateful I wasn't paired with someone because I thought they must have been sitting there going ""damn this dude is stupid""",pineapples|pink|blue|socks|objects|clowns,number,NA,Graduated College,1553706760856,46,male,cooperative,English,NA,02,NA,NA,NA,NA,images/02NUM.PNG,5b5e812f856e8900019451f6,NA,pragmatic_bonus,On the bonus card five of the objects are,NA,Wed Mar 27 2019 12:59:04 GMT-0400 (Eastern Daylight Time),1553705944284,13.609533333333333,8,sentence_completion,NA
6856,NA,10339,28,pragmatic_bonus|pragmatic_no-bonus|false|false|tautology|nonsense,"I'm grateful I wasn't paired with someone because I thought they must have been sitting there going ""damn this dude is stupid""",green|apples|guitars|yellow|objects|clowns,ad_hoc,NA,Graduated College,1553706760856,46,male,cooperative,English,NA,17,NA,NA,NA,NA,images/17HOC.PNG,5b5e812f856e8900019451f6,NA,pragmatic_bonus,On the bonus card the objects in the middle row are,NA,Wed Mar 27 2019 12:59:04 GMT-0400 (Eastern Daylight Time),1553705944284,13.609533333333333,9,sentence_completion,NA
6856,NA,4008,28,semantic_bonus|semantic_no-bonus|false|false|contradiction|nonsense,"I'm grateful I wasn't paired with someone because I thought they must have been sitting there going ""damn this dude is stupid""",blue|pink|feathers|vases|objects|clowns,all,NA,Graduated College,1553706760856,46,male,cooperative,English,NA,35,NA,NA,NA,NA,images/35ALL.PNG,5b5e812f856e8900019451f6,NA,semantic_bonus,On the bonus card all of the objects are,NA,Wed Mar 27 2019 12:59:04 GMT-0400 (Eastern Daylight Time),1553705944284,13.609533333333333,10,sentence_completion,NA
6856,NA,2647,28,semantic_bonus|semantic_no-bonus|false|false|contradiction|nonsense,"I'm grateful I wasn't paired with someone because I thought they must have been sitting there going ""damn this dude is stupid""",umbrellas|rockets|green|pink|objects|clowns,all,NA,Graduated College,1553706760856,46,male,cooperative,English,NA,28,NA,NA,NA,NA,images/28ALL.PNG,5b5e812f856e8900019451f6,NA,semantic_bonus,On the bonus card all of the objects are,NA,Wed Mar 27 2019 12:59:04 GMT-0400 (Eastern Daylight Time),1553705944284,13.609533333333333,11,sentence_completion,NA
6856,NA,14493,28,pragmatic_bonus|pragmatic_no-bonus|false|false|tautology|nonsense,"I'm grateful I wasn't paired with someone because I thought they must have been sitting there going ""damn this dude is stupid""",vases|pink|green|diamonds|objects|clowns,ad_hoc,NA,Graduated College,1553706760856,46,male,cooperative,English,NA,16,NA,NA,NA,NA,images/16HOC.PNG,5b5e812f856e8900019451f6,NA,pragmatic_bonus,On the bonus card the objects in the top row are,NA,Wed Mar 27 2019 12:59:04 GMT-0400 (Eastern Daylight Time),1553705944284,13.609533333333333,12,sentence_completion,NA
6856,NA,5240,28,pragmatic_bonus|pragmatic_no-bonus|false|false|tautology|nonsense,"I'm grateful I wasn't paired with someone because I thought they must have been sitting there going ""damn this dude is stupid""",yellow|forks|blue|leaves|objects|clowns,ad_hoc,NA,Graduated College,1553706760856,46,male,cooperative,English,NA,15,NA,NA,NA,NA,images/15HOC.PNG,5b5e812f856e8900019451f6,NA,pragmatic_bonus,On the bonus card the objects in the bottom row are,NA,Wed Mar 27 2019 12:59:04 GMT-0400 (Eastern Daylight Time),1553705944284,13.609533333333333,13,sentence_completion,NA
6856,NA,3957,28,pragmatic_bonus|pragmatic_no-bonus|false|false|tautology|nonsense,"I'm grateful I wasn't paired with someone because I thought they must have been sitting there going ""damn this dude is stupid""",yellow|flags|pink|sandwiches|objects|clowns,most,NA,Graduated College,1553706760856,46,male,cooperative,English,NA,09,NA,NA,NA,NA,images/09MOST.PNG,5b5e812f856e8900019451f6,NA,pragmatic_no-bonus,On the bonus card most of the objects are,NA,Wed Mar 27 2019 12:59:04 GMT-0400 (Eastern Daylight Time),1553705944284,13.609533333333333,14,sentence_completion,NA
6856,NA,3001,28,semantic_bonus|semantic_no-bonus|false|false|contradiction|nonsense,"I'm grateful I wasn't paired with someone because I thought they must have been sitting there going ""damn this dude is stupid""",pans|jars|yellow|blue|objects|clowns,none,NA,Graduated College,1553706760856,46,male,cooperative,English,NA,24,NA,NA,NA,NA,images/24NONE.PNG,5b5e812f856e8900019451f6,NA,semantic_bonus,On the bonus card none of the objects are,NA,Wed Mar 27 2019 12:59:04 GMT-0400 (Eastern Daylight Time),1553705944284,13.609533333333333,15,sentence_completion,NA
6856,NA,11138,28,pragmatic_bonus|pragmatic_no-bonus|false|false|tautology|nonsense,"I'm grateful I wasn't paired with someone because I thought they must have been sitting there going ""damn this dude is stupid""",green|pears|yellow|buckets|objects|clowns,number,NA,Graduated College,1553706760856,46,male,cooperative,English,NA,05,NA,NA,NA,NA,images/05NUM.PNG,5b5e812f856e8900019451f6,NA,pragmatic_bonus,On the bonus card six of the objects are,NA,Wed Mar 27 2019 12:59:04 GMT-0400 (Eastern Daylight Time),1553705944284,13.609533333333333,16,sentence_completion,NA
6856,NA,2902,28,pragmatic_bonus|pragmatic_no-bonus|false|false|tautology|nonsense,"I'm grateful I wasn't paired with someone because I thought they must have been sitting there going ""damn this dude is stupid""",blue|spoons|saws|yellow|objects|clowns,number,NA,Graduated College,1553706760856,46,male,cooperative,English,NA,03,NA,NA,NA,NA,images/03NUM.PNG,5b5e812f856e8900019451f6,NA,pragmatic_bonus,On the bonus card five of the objects are,NA,Wed Mar 27 2019 12:59:04 GMT-0400 (Eastern Daylight Time),1553705944284,13.609533333333333,17,sentence_completion,NA
6856,NA,5352,28,pragmatic_bonus|pragmatic_no-bonus|false|false|tautology|nonsense,"I'm grateful I wasn't paired with someone because I thought they must have been sitting there going ""damn this dude is stupid""",flowers|blue|yellow|scissors|objects|clowns,most,NA,Graduated College,1553706760856,46,male,cooperative,English,NA,12,NA,NA,NA,NA,images/12MOST.PNG,5b5e812f856e8900019451f6,NA,pragmatic_no-bonus,On the bonus card most of the objects are,NA,Wed Mar 27 2019 12:59:04 GMT-0400 (Eastern Daylight Time),1553705944284,13.609533333333333,18,sentence_completion,NA
6856,NA,3600,28,semantic_bonus|semantic_no-bonus|false|false|contradiction|nonsense,"I'm grateful I wasn't paired with someone because I thought they must have been sitting there going ""damn this dude is stupid""",pink|green|TVs|fans|objects|clowns,all,NA,Graduated College,1553706760856,46,male,cooperative,English,NA,31,NA,NA,NA,NA,images/31ALL.PNG,5b5e812f856e8900019451f6,NA,semantic_bonus,On the bonus card all of the objects are,NA,Wed Mar 27 2019 12:59:04 GMT-0400 (Eastern Daylight Time),1553705944284,13.609533333333333,19,sentence_completion,NA
6856,NA,7152,28,semantic_bonus|semantic_no-bonus|false|false|contradiction|nonsense,"I'm grateful I wasn't paired with someone because I thought they must have been sitting there going ""damn this dude is stupid""",kettles|bananas|blue|green|objects|clowns,none,NA,Graduated College,1553706760856,46,male,cooperative,English,NA,22,NA,NA,NA,NA,images/22NONE.PNG,5b5e812f856e8900019451f6,NA,semantic_bonus,On the bonus card none of the objects are,NA,Wed Mar 27 2019 12:59:04 GMT-0400 (Eastern Daylight Time),1553705944284,13.609533333333333,20,sentence_completion,NA
6856,NA,6079,28,pragmatic_bonus|pragmatic_no-bonus|false|false|tautology|nonsense,"I'm grateful I wasn't paired with someone because I thought they must have been sitting there going ""damn this dude is stupid""",pumpkins|blue|mugs|green|objects|clowns,number,NA,Graduated College,1553706760856,46,male,cooperative,English,NA,01,NA,NA,NA,NA,images/01NUM.PNG,5b5e812f856e8900019451f6,NA,pragmatic_bonus,On the bonus card five of the objects are,NA,Wed Mar 27 2019 12:59:04 GMT-0400 (Eastern Daylight Time),1553705944284,13.609533333333333,21,sentence_completion,NA
6856,NA,2509,28,semantic_bonus|semantic_no-bonus|false|false|contradiction|nonsense,"I'm grateful I wasn't paired with someone because I thought they must have been sitting there going ""damn this dude is stupid""",green|pink|mail boxes|light bulbs|objects|clowns,none,NA,Graduated College,1553706760856,46,male,cooperative,English,NA,19,NA,NA,NA,NA,images/19NONE.PNG,5b5e812f856e8900019451f6,NA,semantic_bonus,On the bonus card none of the objects are,NA,Wed Mar 27 2019 12:59:04 GMT-0400 (Eastern Daylight Time),1553705944284,13.609533333333333,22,sentence_completion,NA
6856,NA,4384,28,pragmatic_bonus|pragmatic_no-bonus|false|false|tautology|nonsense,"I'm grateful I wasn't paired with someone because I thought they must have been sitting there going ""damn this dude is stupid""",lamps|yellow|green|phones|objects|clowns,most,NA,Graduated College,1553706760856,46,male,cooperative,English,NA,08,NA,NA,NA,NA,images/08MOST.PNG,5b5e812f856e8900019451f6,NA,pragmatic_no-bonus,On the bonus card most of the objects are,NA,Wed Mar 27 2019 12:59:04 GMT-0400 (Eastern Daylight Time),1553705944284,13.609533333333333,23,sentence_completion,NA
6856,NA,10484,28,semantic_bonus|semantic_no-bonus|false|false|contradiction|nonsense,"I'm grateful I wasn't paired with someone because I thought they must have been sitting there going ""damn this dude is stupid""",drums|tents|green|yellow|objects|clowns,all,NA,Graduated College,1553706760856,46,male,cooperative,English,NA,32,NA,NA,NA,NA,images/32ALL.PNG,5b5e812f856e8900019451f6,NA,semantic_bonus,On the bonus card all of the objects are,NA,Wed Mar 27 2019 12:59:04 GMT-0400 (Eastern Daylight Time),1553705944284,13.609533333333333,24,sentence_completion,NA
6856,NA,3343,28,semantic_bonus|semantic_no-bonus|false|false|contradiction|nonsense,"I'm grateful I wasn't paired with someone because I thought they must have been sitting there going ""damn this dude is stupid""",blue|yellow|acorns|boots|objects|clowns,none,NA,Graduated College,1553706760856,46,male,cooperative,English,NA,27,NA,NA,NA,NA,images/27NONE.PNG,5b5e812f856e8900019451f6,NA,semantic_bonus,On the bonus card none of the objects are,NA,Wed Mar 27 2019 12:59:04 GMT-0400 (Eastern Daylight Time),1553705944284,13.609533333333333,25,sentence_completion,NA
6856,NA,5767,28,pragmatic_bonus|pragmatic_no-bonus|false|false|tautology|nonsense,"I'm grateful I wasn't paired with someone because I thought they must have been sitting there going ""damn this dude is stupid""",pink|keys|bowties|green|objects|clowns,most,NA,Graduated College,1553706760856,46,male,cooperative,English,NA,07,NA,NA,NA,NA,images/07MOST.PNG,5b5e812f856e8900019451f6,NA,pragmatic_no-bonus,On the bonus card most of the objects are,NA,Wed Mar 27 2019 12:59:04 GMT-0400 (Eastern Daylight Time),1553705944284,13.609533333333333,26,sentence_completion,NA
6856,NA,4286,28,pragmatic_bonus|pragmatic_no-bonus|false|false|tautology|nonsense,"I'm grateful I wasn't paired with someone because I thought they must have been sitting there going ""damn this dude is stupid""",blue|kites|green|benches|objects|clowns,ad_hoc,NA,Graduated College,1553706760856,46,male,cooperative,English,NA,13,NA,NA,NA,NA,images/13HOC.PNG,5b5e812f856e8900019451f6,NA,pragmatic_bonus,On the bonus card the objects in the top row are,NA,Wed Mar 27 2019 12:59:04 GMT-0400 (Eastern Daylight Time),1553705944284,13.609533333333333,27,sentence_completion,NA
6856,NA,3943,28,pragmatic_bonus|pragmatic_no-bonus|false|false|tautology|nonsense,"I'm grateful I wasn't paired with someone because I thought they must have been sitting there going ""damn this dude is stupid""",crowns|blue|pink|pistols|objects|clowns,ad_hoc,NA,Graduated College,1553706760856,46,male,cooperative,English,NA,14,NA,NA,NA,NA,images/14HOC.PNG,5b5e812f856e8900019451f6,NA,pragmatic_bonus,On the bonus card the objects in the middle row are,NA,Wed Mar 27 2019 12:59:04 GMT-0400 (Eastern Daylight Time),1553705944284,13.609533333333333,28,sentence_completion,NA
6856,NA,3453,28,semantic_bonus|semantic_no-bonus|false|false|contradiction|nonsense,"I'm grateful I wasn't paired with someone because I thought they must have been sitting there going ""damn this dude is stupid""",bottles|bikes|yellow|blue|objects|clowns,all,NA,Graduated College,1553706760856,46,male,cooperative,English,NA,36,NA,NA,NA,NA,images/36ALL.PNG,5b5e812f856e8900019451f6,NA,semantic_bonus,On the bonus card all of the objects are,NA,Wed Mar 27 2019 12:59:04 GMT-0400 (Eastern Daylight Time),1553705944284,13.609533333333333,29,sentence_completion,NA
6856,NA,6200,28,pragmatic_bonus|pragmatic_no-bonus|false|false|tautology|nonsense,"I'm grateful I wasn't paired with someone because I thought they must have been sitting there going ""damn this dude is stupid""",green|toasters|pink|boats|objects|clowns,number,NA,Graduated College,1553706760856,46,male,cooperative,English,NA,04,NA,NA,NA,NA,images/04NUM.PNG,5b5e812f856e8900019451f6,NA,pragmatic_bonus,On the bonus card six of the objects are,NA,Wed Mar 27 2019 12:59:04 GMT-0400 (Eastern Daylight Time),1553705944284,13.609533333333333,30,sentence_completion,NA
6856,NA,2792,28,semantic_bonus|semantic_no-bonus|false|false|contradiction|nonsense,"I'm grateful I wasn't paired with someone because I thought they must have been sitting there going ""damn this dude is stupid""",yellow|pink|combs|irons|objects|clowns,all,NA,Graduated College,1553706760856,46,male,cooperative,English,NA,33,NA,NA,NA,NA,images/33ALL.PNG,5b5e812f856e8900019451f6,NA,semantic_bonus,On the bonus card all of the objects are,NA,Wed Mar 27 2019 12:59:04 GMT-0400 (Eastern Daylight Time),1553705944284,13.609533333333333,31,sentence_completion,NA
6856,NA,3998,28,semantic_bonus|semantic_no-bonus|false|false|contradiction|nonsense,"I'm grateful I wasn't paired with someone because I thought they must have been sitting there going ""damn this dude is stupid""",cakes|teapots|green|yellow|objects|clowns,none,NA,Graduated College,1553706760856,46,male,cooperative,English,NA,20,NA,NA,NA,NA,images/20NONE.PNG,5b5e812f856e8900019451f6,NA,semantic_bonus,On the bonus card none of the objects are,NA,Wed Mar 27 2019 12:59:04 GMT-0400 (Eastern Daylight Time),1553705944284,13.609533333333333,32,sentence_completion,NA
6856,NA,6567,28,pragmatic_bonus|pragmatic_no-bonus|false|false|tautology|nonsense,"I'm grateful I wasn't paired with someone because I thought they must have been sitting there going ""damn this dude is stupid""",bathtubs|pink|candles|yellow|objects|clowns,number,NA,Graduated College,1553706760856,46,male,cooperative,English,NA,06,NA,NA,NA,NA,images/06NUM.PNG,5b5e812f856e8900019451f6,NA,pragmatic_bonus,On the bonus card six of the objects are,NA,Wed Mar 27 2019 12:59:04 GMT-0400 (Eastern Daylight Time),1553705944284,13.609533333333333,33,sentence_completion,NA
6856,NA,3783,28,semantic_bonus|semantic_no-bonus|false|false|contradiction|nonsense,"I'm grateful I wasn't paired with someone because I thought they must have been sitting there going ""damn this dude is stupid""",blue|green|envelopes|helicopters|objects|clowns,none,NA,Graduated College,1553706760856,46,male,cooperative,English,NA,25,NA,NA,NA,NA,images/25NONE.PNG,5b5e812f856e8900019451f6,NA,semantic_bonus,On the bonus card none of the objects are,NA,Wed Mar 27 2019 12:59:04 GMT-0400 (Eastern Daylight Time),1553705944284,13.609533333333333,34,sentence_completion,NA
6856,NA,2158,28,semantic_bonus|semantic_no-bonus|false|false|contradiction|nonsense,"I'm grateful I wasn't paired with someone because I thought they must have been sitting there going ""damn this dude is stupid""",pink|yellow|onions|rackets|objects|clowns,none,NA,Graduated College,1553706760856,46,male,cooperative,English,NA,21,NA,NA,NA,NA,images/21NONE.PNG,5b5e812f856e8900019451f6,NA,semantic_bonus,On the bonus card none of the objects are,NA,Wed Mar 27 2019 12:59:04 GMT-0400 (Eastern Daylight Time),1553705944284,13.609533333333333,35,sentence_completion,NA
6856,NA,2791,28,semantic_bonus|semantic_no-bonus|false|false|contradiction|nonsense,"I'm grateful I wasn't paired with someone because I thought they must have been sitting there going ""damn this dude is stupid""",cars|sofas|blue|pink|objects|clowns,none,NA,Graduated College,1553706760856,46,male,cooperative,English,NA,26,NA,NA,NA,NA,images/26NONE.PNG,5b5e812f856e8900019451f6,NA,semantic_bonus,On the bonus card none of the objects are,NA,Wed Mar 27 2019 12:59:04 GMT-0400 (Eastern Daylight Time),1553705944284,13.609533333333333,36,sentence_completion,NA
6856,NA,4576,28,NA,"I'm grateful I wasn't paired with someone because I thought they must have been sitting there going ""damn this dude is stupid""",NA,NA,NA,Graduated College,1553706760856,46,male,cooperative,English,NA,NA,NA,NA,0%,100%,NA,5b5e812f856e8900019451f6,NA,79,NA,NA,Wed Mar 27 2019 12:59:04 GMT-0400 (Eastern Daylight Time),1553705944284,13.609533333333333,1,performance_rating,NA
6856,,6257,28,NA,"I'm grateful I wasn't paired with someone because I thought they must have been sitting there going ""damn this dude is stupid""",NA,true,NA,Graduated College,1553706760856,46,male,cooperative,English,NA,NA,true,false,NA,NA,NA,5b5e812f856e8900019451f6,All dogs are mammals.,true,NA,9,Wed Mar 27 2019 12:59:04 GMT-0400 (Eastern Daylight Time),1553705944284,13.609533333333333,1,truth_value_judgements,all
6856,,5095,28,NA,"I'm grateful I wasn't paired with someone because I thought they must have been sitting there going ""damn this dude is stupid""",NA,implicature,NA,Graduated College,1553706760856,46,male,cooperative,English,NA,NA,true,false,NA,NA,NA,5b5e812f856e8900019451f6,Most pigeons are birds.,true,NA,4,Wed Mar 27 2019 12:59:04 GMT-0400 (Eastern Daylight Time),1553705944284,13.609533333333333,2,truth_value_judgements,most
6856,,4378,28,NA,"I'm grateful I wasn't paired with someone because I thought they must have been sitting there going ""damn this dude is stupid""",NA,implicature,NA,Graduated College,1553706760856,46,male,cooperative,English,NA,NA,true,false,NA,NA,NA,5b5e812f856e8900019451f6,Most elephants are mammals.,true,NA,5,Wed Mar 27 2019 12:59:04 GMT-0400 (Eastern Daylight Time),1553705944284,13.609533333333333,3,truth_value_judgements,most
6856,,4361,28,NA,"I'm grateful I wasn't paired with someone because I thought they must have been sitting there going ""damn this dude is stupid""",NA,true,NA,Graduated College,1553706760856,46,male,cooperative,English,NA,NA,true,false,NA,NA,NA,5b5e812f856e8900019451f6,All beetles are insects.,true,NA,10,Wed Mar 27 2019 12:59:04 GMT-0400 (Eastern Daylight Time),1553705944284,13.609533333333333,4,truth_value_judgements,all
6856,,4384,28,NA,"I'm grateful I wasn't paired with someone because I thought they must have been sitting there going ""damn this dude is stupid""",NA,implicature,NA,Graduated College,1553706760856,46,male,cooperative,English,NA,NA,true,false,NA,NA,NA,5b5e812f856e8900019451f6,Some lizards are reptiles.,true,NA,2,Wed Mar 27 2019 12:59:04 GMT-0400 (Eastern Daylight Time),1553705944284,13.609533333333333,5,truth_value_judgements,some
6856,,4336,28,NA,"I'm grateful I wasn't paired with someone because I thought they must have been sitting there going ""damn this dude is stupid""",NA,true,NA,Graduated College,1553706760856,46,male,cooperative,English,NA,NA,true,false,NA,NA,NA,5b5e812f856e8900019451f6,All salmon are fish.,true,NA,6,Wed Mar 27 2019 12:59:04 GMT-0400 (Eastern Daylight Time),1553705944284,13.609533333333333,6,truth_value_judgements,all
6856,,4369,28,NA,"I'm grateful I wasn't paired with someone because I thought they must have been sitting there going ""damn this dude is stupid""",NA,bizarre,NA,Graduated College,1553706760856,46,male,cooperative,English,NA,NA,true,false,NA,NA,NA,5b5e812f856e8900019451f6,All birds have telephones.,false,NA,1,Wed Mar 27 2019 12:59:04 GMT-0400 (Eastern Daylight Time),1553705944284,13.609533333333333,7,truth_value_judgements,all
6856,,4376,28,NA,"I'm grateful I wasn't paired with someone because I thought they must have been sitting there going ""damn this dude is stupid""",NA,true,NA,Graduated College,1553706760856,46,male,cooperative,English,NA,NA,true,false,NA,NA,NA,5b5e812f856e8900019451f6,Most days in a year are working days.,true,NA,3,Wed Mar 27 2019 12:59:04 GMT-0400 (Eastern Daylight Time),1553705944284,13.609533333333333,8,truth_value_judgements,most
6856,,5649,28,NA,"I'm grateful I wasn't paired with someone because I thought they must have been sitting there going ""damn this dude is stupid""",NA,implicature,NA,Graduated College,1553706760856,46,male,cooperative,English,NA,NA,true,false,NA,NA,NA,5b5e812f856e8900019451f6,Modern cars have three wheels.,true,NA,1,Wed Mar 27 2019 12:59:04 GMT-0400 (Eastern Daylight Time),1553705944284,13.609533333333333,9,truth_value_judgements,number
6856,,4896,28,NA,"I'm grateful I wasn't paired with someone because I thought they must have been sitting there going ""damn this dude is stupid""",NA,true,NA,Graduated College,1553706760856,46,male,cooperative,English,NA,NA,true,false,NA,NA,NA,5b5e812f856e8900019451f6,Monkeys have five fingers on each hand.,true,NA,2,Wed Mar 27 2019 12:59:04 GMT-0400 (Eastern Daylight Time),1553705944284,13.609533333333333,10,truth_value_judgements,number
6856,,4425,28,NA,"I'm grateful I wasn't paired with someone because I thought they must have been sitting there going ""damn this dude is stupid""",NA,bizarre,NA,Graduated College,1553706760856,46,male,cooperative,English,NA,NA,true,false,NA,NA,NA,5b5e812f856e8900019451f6,Some fruits have computers.,false,NA,2,Wed Mar 27 2019 12:59:04 GMT-0400 (Eastern Daylight Time),1553705944284,13.609533333333333,11,truth_value_judgements,some
6856,,4360,28,NA,"I'm grateful I wasn't paired with someone because I thought they must have been sitting there going ""damn this dude is stupid""",NA,implicature,NA,Graduated College,1553706760856,46,male,cooperative,English,NA,NA,true,false,NA,NA,NA,5b5e812f856e8900019451f6,Monkeys have three bones.,true,NA,5,Wed Mar 27 2019 12:59:04 GMT-0400 (Eastern Daylight Time),1553705944284,13.609533333333333,12,truth_value_judgements,number
6856,,4385,28,NA,"I'm grateful I wasn't paired with someone because I thought they must have been sitting there going ""damn this dude is stupid""",NA,implicature,NA,Graduated College,1553706760856,46,male,cooperative,English,NA,NA,true,false,NA,NA,NA,5b5e812f856e8900019451f6,Some ants are insects.,true,NA,4,Wed Mar 27 2019 12:59:04 GMT-0400 (Eastern Daylight Time),1553705944284,13.609533333333333,13,truth_value_judgements,some
6856,,4392,28,NA,"I'm grateful I wasn't paired with someone because I thought they must have been sitting there going ""damn this dude is stupid""",NA,bizarre,NA,Graduated College,1553706760856,46,male,cooperative,English,NA,NA,true,false,NA,NA,NA,5b5e812f856e8900019451f6,All chairs tell time.,false,NA,3,Wed Mar 27 2019 12:59:04 GMT-0400 (Eastern Daylight Time),1553705944284,13.609533333333333,14,truth_value_judgements,all
6856,,4337,28,NA,"I'm grateful I wasn't paired with someone because I thought they must have been sitting there going ""damn this dude is stupid""",NA,bizarre,NA,Graduated College,1553706760856,46,male,cooperative,English,NA,NA,true,false,NA,NA,NA,5b5e812f856e8900019451f6,All couches have windows.,false,NA,5,Wed Mar 27 2019 12:59:04 GMT-0400 (Eastern Daylight Time),1553705944284,13.609533333333333,15,truth_value_judgements,all
6856,,4443,28,NA,"I'm grateful I wasn't paired with someone because I thought they must have been sitting there going ""damn this dude is stupid""",NA,bizarre,NA,Graduated College,1553706760856,46,male,cooperative,English,NA,NA,true,false,NA,NA,NA,5b5e812f856e8900019451f6,Some books are good to eat.,false,NA,3,Wed Mar 27 2019 12:59:04 GMT-0400 (Eastern Daylight Time),1553705944284,13.609533333333333,16,truth_value_judgements,some
6856,,4316,28,NA,"I'm grateful I wasn't paired with someone because I thought they must have been sitting there going ""damn this dude is stupid""",NA,implicature,NA,Graduated College,1553706760856,46,male,cooperative,English,NA,NA,true,false,NA,NA,NA,5b5e812f856e8900019451f6,Some trouts are fish.,true,NA,1,Wed Mar 27 2019 12:59:04 GMT-0400 (Eastern Daylight Time),1553705944284,13.609533333333333,17,truth_value_judgements,some
6856,,4344,28,NA,"I'm grateful I wasn't paired with someone because I thought they must have been sitting there going ""damn this dude is stupid""",NA,bizarre,NA,Graduated College,1553706760856,46,male,cooperative,English,NA,NA,true,false,NA,NA,NA,5b5e812f856e8900019451f6,Most chairs are hungry.,false,NA,2,Wed Mar 27 2019 12:59:04 GMT-0400 (Eastern Daylight Time),1553705944284,13.609533333333333,18,truth_value_judgements,most
6856,,4336,28,NA,"I'm grateful I wasn't paired with someone because I thought they must have been sitting there going ""damn this dude is stupid""",NA,bizarre,NA,Graduated College,1553706760856,46,male,cooperative,English,NA,NA,true,false,NA,NA,NA,5b5e812f856e8900019451f6,Some fish are made of leaves.,true,NA,1,Wed Mar 27 2019 12:59:04 GMT-0400 (Eastern Daylight Time),1553705944284,13.609533333333333,19,truth_value_judgements,some
6856,,4999,28,NA,"I'm grateful I wasn't paired with someone because I thought they must have been sitting there going ""damn this dude is stupid""",NA,true,NA,Graduated College,1553706760856,46,male,cooperative,English,NA,NA,true,false,NA,NA,NA,5b5e812f856e8900019451f6,Most people know more than one language.,false,NA,4,Wed Mar 27 2019 12:59:04 GMT-0400 (Eastern Daylight Time),1553705944284,13.609533333333333,20,truth_value_judgements,most
6856,,4328,28,NA,"I'm grateful I wasn't paired with someone because I thought they must have been sitting there going ""damn this dude is stupid""",NA,true,NA,Graduated College,1553706760856,46,male,cooperative,English,NA,NA,true,false,NA,NA,NA,5b5e812f856e8900019451f6,Some children are blond.,true,NA,4,Wed Mar 27 2019 12:59:04 GMT-0400 (Eastern Daylight Time),1553705944284,13.609533333333333,21,truth_value_judgements,some
6856,,4352,28,NA,"I'm grateful I wasn't paired with someone because I thought they must have been sitting there going ""damn this dude is stupid""",NA,implicature,NA,Graduated College,1553706760856,46,male,cooperative,English,NA,NA,true,false,NA,NA,NA,5b5e812f856e8900019451f6,Most sharks are fish.,true,NA,1,Wed Mar 27 2019 12:59:04 GMT-0400 (Eastern Daylight Time),1553705944284,13.609533333333333,22,truth_value_judgements,most
6856,,4407,28,NA,"I'm grateful I wasn't paired with someone because I thought they must have been sitting there going ""damn this dude is stupid""",NA,bizarre,NA,Graduated College,1553706760856,46,male,cooperative,English,NA,NA,true,false,NA,NA,NA,5b5e812f856e8900019451f6,All garages sing.,false,NA,4,Wed Mar 27 2019 12:59:04 GMT-0400 (Eastern Daylight Time),1553705944284,13.609533333333333,23,truth_value_judgements,all
6856,,4352,28,NA,"I'm grateful I wasn't paired with someone because I thought they must have been sitting there going ""damn this dude is stupid""",NA,bizarre,NA,Graduated College,1553706760856,46,male,cooperative,English,NA,NA,true,false,NA,NA,NA,5b5e812f856e8900019451f6,Most elephants have glasses.,false,NA,1,Wed Mar 27 2019 12:59:04 GMT-0400 (Eastern Daylight Time),1553705944284,13.609533333333333,24,truth_value_judgements,most
6856,,4424,28,NA,"I'm grateful I wasn't paired with someone because I thought they must have been sitting there going ""damn this dude is stupid""",NA,bizarre,NA,Graduated College,1553706760856,46,male,cooperative,English,NA,NA,true,false,NA,NA,NA,5b5e812f856e8900019451f6,Forests last three nights.,false,NA,3,Wed Mar 27 2019 12:59:04 GMT-0400 (Eastern Daylight Time),1553705944284,13.609533333333333,25,truth_value_judgements,number
6856,,4345,28,NA,"I'm grateful I wasn't paired with someone because I thought they must have been sitting there going ""damn this dude is stupid""",NA,bizarre,NA,Graduated College,1553706760856,46,male,cooperative,English,NA,NA,true,false,NA,NA,NA,5b5e812f856e8900019451f6,A week consists of five people.,false,NA,4,Wed Mar 27 2019 12:59:04 GMT-0400 (Eastern Daylight Time),1553705944284,13.609533333333333,26,truth_value_judgements,number
6856,,4352,28,NA,"I'm grateful I wasn't paired with someone because I thought they must have been sitting there going ""damn this dude is stupid""",NA,true,NA,Graduated College,1553706760856,46,male,cooperative,English,NA,NA,true,false,NA,NA,NA,5b5e812f856e8900019451f6,Some flowers are yellow.,true,NA,1,Wed Mar 27 2019 12:59:04 GMT-0400 (Eastern Daylight Time),1553705944284,13.609533333333333,27,truth_value_judgements,some
6856,,4330,28,NA,"I'm grateful I wasn't paired with someone because I thought they must have been sitting there going ""damn this dude is stupid""",NA,true,NA,Graduated College,1553706760856,46,male,cooperative,English,NA,NA,true,false,NA,NA,NA,5b5e812f856e8900019451f6,Most people know their parents.,true,NA,1,Wed Mar 27 2019 12:59:04 GMT-0400 (Eastern Daylight Time),1553705944284,13.609533333333333,28,truth_value_judgements,most
6856,,4335,28,NA,"I'm grateful I wasn't paired with someone because I thought they must have been sitting there going ""damn this dude is stupid""",NA,true,NA,Graduated College,1553706760856,46,male,cooperative,English,NA,NA,true,false,NA,NA,NA,5b5e812f856e8900019451f6,Some drinks are made from chocolate.,true,NA,5,Wed Mar 27 2019 12:59:04 GMT-0400 (Eastern Daylight Time),1553705944284,13.609533333333333,29,truth_value_judgements,some
6856,,4479,28,NA,"I'm grateful I wasn't paired with someone because I thought they must have been sitting there going ""damn this dude is stupid""",NA,bizarre,NA,Graduated College,1553706760856,46,male,cooperative,English,NA,NA,true,false,NA,NA,NA,5b5e812f856e8900019451f6,The earth owns seven books.,true,NA,5,Wed Mar 27 2019 12:59:04 GMT-0400 (Eastern Daylight Time),1553705944284,13.609533333333333,30,truth_value_judgements,number
6856,,4553,28,NA,"I'm grateful I wasn't paired with someone because I thought they must have been sitting there going ""damn this dude is stupid""",NA,true,NA,Graduated College,1553706760856,46,male,cooperative,English,NA,NA,true,false,NA,NA,NA,5b5e812f856e8900019451f6,Some tools are made of wood..,true,NA,3,Wed Mar 27 2019 12:59:04 GMT-0400 (Eastern Daylight Time),1553705944284,13.609533333333333,31,truth_value_judgements,some
6856,,4697,28,NA,"I'm grateful I wasn't paired with someone because I thought they must have been sitting there going ""damn this dude is stupid""",NA,bizarre,NA,Graduated College,1553706760856,46,male,cooperative,English,NA,NA,true,false,NA,NA,NA,5b5e812f856e8900019451f6,Guitars have four legs.,false,NA,2,Wed Mar 27 2019 12:59:04 GMT-0400 (Eastern Daylight Time),1553705944284,13.609533333333333,32,truth_value_judgements,number
6856,,4367,28,NA,"I'm grateful I wasn't paired with someone because I thought they must have been sitting there going ""damn this dude is stupid""",NA,bizarre,NA,Graduated College,1553706760856,46,male,cooperative,English,NA,NA,true,false,NA,NA,NA,5b5e812f856e8900019451f6,The moon has two ears.,false,NA,1,Wed Mar 27 2019 12:59:04 GMT-0400 (Eastern Daylight Time),1553705944284,13.609533333333333,33,truth_value_judgements,number
6856,,4305,28,NA,"I'm grateful I wasn't paired with someone because I thought they must have been sitting there going ""damn this dude is stupid""",NA,true,NA,Graduated College,1553706760856,46,male,cooperative,English,NA,NA,true,false,NA,NA,NA,5b5e812f856e8900019451f6,Most birds can fly.,true,NA,2,Wed Mar 27 2019 12:59:04 GMT-0400 (Eastern Daylight Time),1553705944284,13.609533333333333,34,truth_value_judgements,most
6856,,4344,28,NA,"I'm grateful I wasn't paired with someone because I thought they must have been sitting there going ""damn this dude is stupid""",NA,true,NA,Graduated College,1553706760856,46,male,cooperative,English,NA,NA,true,false,NA,NA,NA,5b5e812f856e8900019451f6,All refrigerators have doors.,false,NA,5,Wed Mar 27 2019 12:59:04 GMT-0400 (Eastern Daylight Time),1553705944284,13.609533333333333,35,truth_value_judgements,all
6856,,4567,28,NA,"I'm grateful I wasn't paired with someone because I thought they must have been sitting there going ""damn this dude is stupid""",NA,true,NA,Graduated College,1553706760856,46,male,cooperative,English,NA,NA,true,false,NA,NA,NA,5b5e812f856e8900019451f6,Most horses are tame.,false,NA,5,Wed Mar 27 2019 12:59:04 GMT-0400 (Eastern Daylight Time),1553705944284,13.609533333333333,36,truth_value_judgements,most
6856,,4360,28,NA,"I'm grateful I wasn't paired with someone because I thought they must have been sitting there going ""damn this dude is stupid""",NA,bizarre,NA,Graduated College,1553706760856,46,male,cooperative,English,NA,NA,true,false,NA,NA,NA,5b5e812f856e8900019451f6,Most motorcycles like music.,false,NA,3,Wed Mar 27 2019 12:59:04 GMT-0400 (Eastern Daylight Time),1553705944284,13.609533333333333,37,truth_value_judgements,most
6856,,4392,28,NA,"I'm grateful I wasn't paired with someone because I thought they must have been sitting there going ""damn this dude is stupid""",NA,bizarre,NA,Graduated College,1553706760856,46,male,cooperative,English,NA,NA,true,false,NA,NA,NA,5b5e812f856e8900019451f6,Most sofas are friendly.,false,NA,4,Wed Mar 27 2019 12:59:04 GMT-0400 (Eastern Daylight Time),1553705944284,13.609533333333333,38,truth_value_judgements,most
6856,,4511,28,NA,"I'm grateful I wasn't paired with someone because I thought they must have been sitting there going ""damn this dude is stupid""",NA,true,NA,Graduated College,1553706760856,46,male,cooperative,English,NA,NA,true,false,NA,NA,NA,5b5e812f856e8900019451f6,All elephants have trunks.,false,NA,4,Wed Mar 27 2019 12:59:04 GMT-0400 (Eastern Daylight Time),1553705944284,13.609533333333333,39,truth_value_judgements,all
6856,,4381,28,NA,"I'm grateful I wasn't paired with someone because I thought they must have been sitting there going ""damn this dude is stupid""",NA,implicature,NA,Graduated College,1553706760856,46,male,cooperative,English,NA,NA,true,false,NA,NA,NA,5b5e812f856e8900019451f6,The universe contains three planets.,true,NA,3,Wed Mar 27 2019 12:59:04 GMT-0400 (Eastern Daylight Time),1553705944284,13.609533333333333,40,truth_value_judgements,number
6856,,4361,28,NA,"I'm grateful I wasn't paired with someone because I thought they must have been sitting there going ""damn this dude is stupid""",NA,true,NA,Graduated College,1553706760856,46,male,cooperative,English,NA,NA,true,false,NA,NA,NA,5b5e812f856e8900019451f6,All hammers have a handle.,false,NA,2,Wed Mar 27 2019 12:59:04 GMT-0400 (Eastern Daylight Time),1553705944284,13.609533333333333,41,truth_value_judgements,all
6856,,4362,28,NA,"I'm grateful I wasn't paired with someone because I thought they must have been sitting there going ""damn this dude is stupid""",NA,implicature,NA,Graduated College,1553706760856,46,male,cooperative,English,NA,NA,true,false,NA,NA,NA,5b5e812f856e8900019451f6,Most horses are mammals.,true,NA,2,Wed Mar 27 2019 12:59:04 GMT-0400 (Eastern Daylight Time),1553705944284,13.609533333333333,42,truth_value_judgements,most
6856,,4303,28,NA,"I'm grateful I wasn't paired with someone because I thought they must have been sitting there going ""damn this dude is stupid""",NA,true,NA,Graduated College,1553706760856,46,male,cooperative,English,NA,NA,true,false,NA,NA,NA,5b5e812f856e8900019451f6,All crocodiles are reptiles.,true,NA,7,Wed Mar 27 2019 12:59:04 GMT-0400 (Eastern Daylight Time),1553705944284,13.609533333333333,43,truth_value_judgements,all
6856,,4345,28,NA,"I'm grateful I wasn't paired with someone because I thought they must have been sitting there going ""damn this dude is stupid""",NA,implicature,NA,Graduated College,1553706760856,46,male,cooperative,English,NA,NA,true,false,NA,NA,NA,5b5e812f856e8900019451f6,A human hand has two fingers.,true,NA,2,Wed Mar 27 2019 12:59:04 GMT-0400 (Eastern Daylight Time),1553705944284,13.609533333333333,44,truth_value_judgements,number
6856,,4353,28,NA,"I'm grateful I wasn't paired with someone because I thought they must have been sitting there going ""damn this dude is stupid""",NA,implicature,NA,Graduated College,1553706760856,46,male,cooperative,English,NA,NA,true,false,NA,NA,NA,5b5e812f856e8900019451f6,A year has 245 days.,true,NA,4,Wed Mar 27 2019 12:59:04 GMT-0400 (Eastern Daylight Time),1553705944284,13.609533333333333,45,truth_value_judgements,number
6856,,4464,28,NA,"I'm grateful I wasn't paired with someone because I thought they must have been sitting there going ""damn this dude is stupid""",NA,true,NA,Graduated College,1553706760856,46,male,cooperative,English,NA,NA,true,false,NA,NA,NA,5b5e812f856e8900019451f6,All robins have wings.,false,NA,3,Wed Mar 27 2019 12:59:04 GMT-0400 (Eastern Daylight Time),1553705944284,13.609533333333333,46,truth_value_judgements,all
6856,,5121,28,NA,"I'm grateful I wasn't paired with someone because I thought they must have been sitting there going ""damn this dude is stupid""",NA,true,NA,Graduated College,1553706760856,46,male,cooperative,English,NA,NA,true,false,NA,NA,NA,5b5e812f856e8900019451f6,Cats have four legs.,true,NA,4,Wed Mar 27 2019 12:59:04 GMT-0400 (Eastern Daylight Time),1553705944284,13.609533333333333,47,truth_value_judgements,number
6856,,4345,28,NA,"I'm grateful I wasn't paired with someone because I thought they must have been sitting there going ""damn this dude is stupid""",NA,true,NA,Graduated College,1553706760856,46,male,cooperative,English,NA,NA,true,false,NA,NA,NA,5b5e812f856e8900019451f6,Some dresses have pockets.,true,NA,2,Wed Mar 27 2019 12:59:04 GMT-0400 (Eastern Daylight Time),1553705944284,13.609533333333333,48,truth_value_judgements,some
6856,,4328,28,NA,"I'm grateful I wasn't paired with someone because I thought they must have been sitting there going ""damn this dude is stupid""",NA,bizarre,NA,Graduated College,1553706760856,46,male,cooperative,English,NA,NA,true,false,NA,NA,NA,5b5e812f856e8900019451f6,Most tigers are literate.,false,NA,5,Wed Mar 27 2019 12:59:04 GMT-0400 (Eastern Daylight Time),1553705944284,13.609533333333333,49,truth_value_judgements,most
6856,,4345,28,NA,"I'm grateful I wasn't paired with someone because I thought they must have been sitting there going ""damn this dude is stupid""",NA,implicature,NA,Graduated College,1553706760856,46,male,cooperative,English,NA,NA,true,false,NA,NA,NA,5b5e812f856e8900019451f6,Most snakes are reptiles.,true,NA,3,Wed Mar 27 2019 12:59:04 GMT-0400 (Eastern Daylight Time),1553705944284,13.609533333333333,50,truth_value_judgements,most
6856,,4361,28,NA,"I'm grateful I wasn't paired with someone because I thought they must have been sitting there going ""damn this dude is stupid""",NA,true,NA,Graduated College,1553706760856,46,male,cooperative,English,NA,NA,true,false,NA,NA,NA,5b5e812f856e8900019451f6,A week has seven days.,true,NA,3,Wed Mar 27 2019 12:59:04 GMT-0400 (Eastern Daylight Time),1553705944284,13.609533333333333,51,truth_value_judgements,number
6856,,4400,28,NA,"I'm grateful I wasn't paired with someone because I thought they must have been sitting there going ""damn this dude is stupid""",NA,true,NA,Graduated College,1553706760856,46,male,cooperative,English,NA,NA,true,false,NA,NA,NA,5b5e812f856e8900019451f6,Humans have two eyes.,true,NA,5,Wed Mar 27 2019 12:59:04 GMT-0400 (Eastern Daylight Time),1553705944284,13.609533333333333,52,truth_value_judgements,number
6856,,4337,28,NA,"I'm grateful I wasn't paired with someone because I thought they must have been sitting there going ""damn this dude is stupid""",NA,implicature,NA,Graduated College,1553706760856,46,male,cooperative,English,NA,NA,true,false,NA,NA,NA,5b5e812f856e8900019451f6,Some owls are birds.,true,NA,3,Wed Mar 27 2019 12:59:04 GMT-0400 (Eastern Daylight Time),1553705944284,13.609533333333333,53,truth_value_judgements,some
6856,,5616,28,NA,"I'm grateful I wasn't paired with someone because I thought they must have been sitting there going ""damn this dude is stupid""",NA,bizarre,NA,Graduated College,1553706760856,46,male,cooperative,English,NA,NA,true,false,NA,NA,NA,5b5e812f856e8900019451f6,Some children are made of feathers.,true,NA,5,Wed Mar 27 2019 12:59:04 GMT-0400 (Eastern Daylight Time),1553705944284,13.609533333333333,54,truth_value_judgements,some
6856,,4336,28,NA,"I'm grateful I wasn't paired with someone because I thought they must have been sitting there going ""damn this dude is stupid""",NA,true,NA,Graduated College,1553706760856,46,male,cooperative,English,NA,NA,true,false,NA,NA,NA,5b5e812f856e8900019451f6,All books have pages.,false,NA,1,Wed Mar 27 2019 12:59:04 GMT-0400 (Eastern Daylight Time),1553705944284,13.609533333333333,55,truth_value_judgements,all
6856,,5289,28,NA,"I'm grateful I wasn't paired with someone because I thought they must have been sitting there going ""damn this dude is stupid""",NA,true,NA,Graduated College,1553706760856,46,male,cooperative,English,NA,NA,true,false,NA,NA,NA,5b5e812f856e8900019451f6,All eagles are birds.,false,NA,8,Wed Mar 27 2019 12:59:04 GMT-0400 (Eastern Daylight Time),1553705944284,13.609533333333333,56,truth_value_judgements,all
6856,,4401,28,NA,"I'm grateful I wasn't paired with someone because I thought they must have been sitting there going ""damn this dude is stupid""",NA,implicature,NA,Graduated College,1553706760856,46,male,cooperative,English,NA,NA,true,false,NA,NA,NA,5b5e812f856e8900019451f6,Some cats are mammals.,true,NA,5,Wed Mar 27 2019 12:59:04 GMT-0400 (Eastern Daylight Time),1553705944284,13.609533333333333,57,truth_value_judgements,some
6856,,4392,28,NA,"I'm grateful I wasn't paired with someone because I thought they must have been sitting there going ""damn this dude is stupid""",NA,true,NA,Graduated College,1553706760856,46,male,cooperative,English,NA,NA,true,false,NA,NA,NA,5b5e812f856e8900019451f6,A normal motorcycle has two wheels.,true,NA,1,Wed Mar 27 2019 12:59:04 GMT-0400 (Eastern Daylight Time),1553705944284,13.609533333333333,58,truth_value_judgements,number
6856,,4343,28,NA,"I'm grateful I wasn't paired with someone because I thought they must have been sitting there going ""damn this dude is stupid""",NA,bizarre,NA,Graduated College,1553706760856,46,male,cooperative,English,NA,NA,true,false,NA,NA,NA,5b5e812f856e8900019451f6,All crayons have noses.,false,NA,2,Wed Mar 27 2019 12:59:04 GMT-0400 (Eastern Daylight Time),1553705944284,13.609533333333333,59,truth_value_judgements,all
6856,,4393,28,NA,"I'm grateful I wasn't paired with someone because I thought they must have been sitting there going ""damn this dude is stupid""",NA,bizarre,NA,Graduated College,1553706760856,46,male,cooperative,English,NA,NA,true,false,NA,NA,NA,5b5e812f856e8900019451f6,Some stores are made of bubbles.,true,NA,4,Wed Mar 27 2019 12:59:04 GMT-0400 (Eastern Daylight Time),1553705944284,13.609533333333333,60,truth_value_judgements,some
6855,NA,4410,21,NA,,NA,NA,12,Higher Degree,1553706645102,46,female,cooperative,English,0,NA,NA,NA,NA,NA,images/Plate1.png,5bedcd9bcca71f0001411fc0,Please type the number you see in the picture above into the textbox. Please write 'none' if you do not see anything?,12,NA,NA,Wed Mar 27 2019 16:53:08 GMT+0000 (Greenwich Mean Time),1553705588247,17.61425,1,color_blindness_test,NA
6855,NA,5825,21,NA,,NA,NA,45,Higher Degree,1553706645102,46,female,cooperative,English,0,NA,NA,NA,NA,NA,images/Plate9.png,5bedcd9bcca71f0001411fc0,Please type the number you see in the picture above into the textbox. Please write 'none' if you do not see anything?,45,NA,NA,Wed Mar 27 2019 16:53:08 GMT+0000 (Greenwich Mean Time),1553705588247,17.61425,2,color_blindness_test,NA
6855,NA,16362,21,NA,,NA,NA,73,Higher Degree,1553706645102,46,female,cooperative,English,0,NA,NA,NA,NA,NA,images/Plate13.png,5bedcd9bcca71f0001411fc0,Please type the number you see in the picture above into the textbox. Please write 'none' if you do not see anything?,73,NA,NA,Wed Mar 27 2019 16:53:08 GMT+0000 (Greenwich Mean Time),1553705588247,17.61425,3,color_blindness_test,NA
6855,NA,3328,21,NA,,NA,NA,NA,Higher Degree,1553706645102,46,female,cooperative,English,NA,NA,red,green,NA,NA,NA,5bedcd9bcca71f0001411fc0,Which color is the box surrounding the bonus card?,green,NA,NA,Wed Mar 27 2019 16:53:08 GMT+0000 (Greenwich Mean Time),1553705588247,17.61425,1,comprehension_test,NA
6855,NA,7199,21,NA,,NA,NA,NA,Higher Degree,1553706645102,46,female,cooperative,English,NA,NA,yes,no,NA,NA,NA,5bedcd9bcca71f0001411fc0,Are you allowed to select words that make the whole descriptions false?,yes,NA,NA,Wed Mar 27 2019 16:53:08 GMT+0000 (Greenwich Mean Time),1553705588247,17.61425,2,comprehension_test,NA
6855,NA,3911,21,NA,,NA,NA,NA,Higher Degree,1553706645102,46,female,cooperative,English,NA,NA,help,mislead,NA,NA,NA,5bedcd9bcca71f0001411fc0,"Is your goal to help the guesser find the bonus card, or should you mislead the guesser to pick the other card instead?",help,NA,NA,Wed Mar 27 2019 16:53:08 GMT+0000 (Greenwich Mean Time),1553705588247,17.61425,3,comprehension_test,NA
6855,NA,31491,21,pragmatic_bonus|pragmatic_no-bonus|false|false|tautology|nonsense,,vases|pink|green|diamonds|objects|clowns,ad_hoc,NA,Higher Degree,1553706645102,46,female,cooperative,English,NA,16,NA,NA,NA,NA,images/16HOC.PNG,5bedcd9bcca71f0001411fc0,NA,false,On the bonus card the objects in the top row are,NA,Wed Mar 27 2019 16:53:08 GMT+0000 (Greenwich Mean Time),1553705588247,17.61425,1,sentence_completion,NA
6855,NA,13219,21,semantic_bonus|semantic_no-bonus|false|false|contradiction|nonsense,,trumpets|carrots|green|blue|objects|clowns,all,NA,Higher Degree,1553706645102,46,female,cooperative,English,NA,34,NA,NA,NA,NA,images/34ALL.PNG,5bedcd9bcca71f0001411fc0,NA,semantic_bonus,On the bonus card all of the objects are,NA,Wed Mar 27 2019 16:53:08 GMT+0000 (Greenwich Mean Time),1553705588247,17.61425,2,sentence_completion,NA
6855,NA,17125,21,pragmatic_bonus|pragmatic_no-bonus|false|false|tautology|nonsense,,flowers|blue|yellow|scissors|objects|clowns,most,NA,Higher Degree,1553706645102,46,female,cooperative,English,NA,12,NA,NA,NA,NA,images/12MOST.PNG,5bedcd9bcca71f0001411fc0,NA,pragmatic_no-bonus,On the bonus card most of the objects are,NA,Wed Mar 27 2019 16:53:08 GMT+0000 (Greenwich Mean Time),1553705588247,17.61425,3,sentence_completion,NA
6855,NA,18502,21,pragmatic_bonus|pragmatic_no-bonus|false|false|tautology|nonsense,,bathtubs|pink|candles|yellow|objects|clowns,number,NA,Higher Degree,1553706645102,46,female,cooperative,English,NA,06,NA,NA,NA,NA,images/06NUM.PNG,5bedcd9bcca71f0001411fc0,NA,pragmatic_bonus,On the bonus card six of the objects are,NA,Wed Mar 27 2019 16:53:08 GMT+0000 (Greenwich Mean Time),1553705588247,17.61425,4,sentence_completion,NA
6855,NA,14302,21,semantic_bonus|semantic_no-bonus|false|false|contradiction|nonsense,,pink|yellow|onions|rackets|objects|clowns,none,NA,Higher Degree,1553706645102,46,female,cooperative,English,NA,21,NA,NA,NA,NA,images/21NONE.PNG,5bedcd9bcca71f0001411fc0,NA,semantic_bonus,On the bonus card none of the objects are,NA,Wed Mar 27 2019 16:53:08 GMT+0000 (Greenwich Mean Time),1553705588247,17.61425,5,sentence_completion,NA
6855,NA,10919,21,pragmatic_bonus|pragmatic_no-bonus|false|false|tautology|nonsense,,blue|kites|green|benches|objects|clowns,ad_hoc,NA,Higher Degree,1553706645102,46,female,cooperative,English,NA,13,NA,NA,NA,NA,images/13HOC.PNG,5bedcd9bcca71f0001411fc0,NA,false,On the bonus card the objects in the top row are,NA,Wed Mar 27 2019 16:53:08 GMT+0000 (Greenwich Mean Time),1553705588247,17.61425,6,sentence_completion,NA
6855,NA,25337,21,pragmatic_bonus|pragmatic_no-bonus|false|false|tautology|nonsense,,pineapples|pink|blue|socks|objects|clowns,number,NA,Higher Degree,1553706645102,46,female,cooperative,English,NA,02,NA,NA,NA,NA,images/02NUM.PNG,5bedcd9bcca71f0001411fc0,NA,pragmatic_bonus,On the bonus card five of the objects are,NA,Wed Mar 27 2019 16:53:08 GMT+0000 (Greenwich Mean Time),1553705588247,17.61425,7,sentence_completion,NA
6855,NA,8200,21,semantic_bonus|semantic_no-bonus|false|false|contradiction|nonsense,,cakes|teapots|green|yellow|objects|clowns,none,NA,Higher Degree,1553706645102,46,female,cooperative,English,NA,20,NA,NA,NA,NA,images/20NONE.PNG,5bedcd9bcca71f0001411fc0,NA,semantic_bonus,On the bonus card none of the objects are,NA,Wed Mar 27 2019 16:53:08 GMT+0000 (Greenwich Mean Time),1553705588247,17.61425,8,sentence_completion,NA
6855,NA,5463,21,semantic_bonus|semantic_no-bonus|false|false|contradiction|nonsense,,kettles|bananas|blue|green|objects|clowns,none,NA,Higher Degree,1553706645102,46,female,cooperative,English,NA,22,NA,NA,NA,NA,images/22NONE.PNG,5bedcd9bcca71f0001411fc0,NA,semantic_bonus,On the bonus card none of the objects are,NA,Wed Mar 27 2019 16:53:08 GMT+0000 (Greenwich Mean Time),1553705588247,17.61425,9,sentence_completion,NA
6855,NA,10146,21,pragmatic_bonus|pragmatic_no-bonus|false|false|tautology|nonsense,,green|apples|guitars|yellow|objects|clowns,ad_hoc,NA,Higher Degree,1553706645102,46,female,cooperative,English,NA,17,NA,NA,NA,NA,images/17HOC.PNG,5bedcd9bcca71f0001411fc0,NA,false,On the bonus card the objects in the middle row are,NA,Wed Mar 27 2019 16:53:08 GMT+0000 (Greenwich Mean Time),1553705588247,17.61425,10,sentence_completion,NA
6855,NA,6282,21,semantic_bonus|semantic_no-bonus|false|false|contradiction|nonsense,,blue|pink|feathers|vases|objects|clowns,all,NA,Higher Degree,1553706645102,46,female,cooperative,English,NA,35,NA,NA,NA,NA,images/35ALL.PNG,5bedcd9bcca71f0001411fc0,NA,semantic_bonus,On the bonus card all of the objects are,NA,Wed Mar 27 2019 16:53:08 GMT+0000 (Greenwich Mean Time),1553705588247,17.61425,11,sentence_completion,NA
6855,NA,5132,21,semantic_bonus|semantic_no-bonus|false|false|contradiction|nonsense,,drums|tents|green|yellow|objects|clowns,all,NA,Higher Degree,1553706645102,46,female,cooperative,English,NA,32,NA,NA,NA,NA,images/32ALL.PNG,5bedcd9bcca71f0001411fc0,NA,semantic_bonus,On the bonus card all of the objects are,NA,Wed Mar 27 2019 16:53:08 GMT+0000 (Greenwich Mean Time),1553705588247,17.61425,12,sentence_completion,NA
6855,NA,8104,21,semantic_bonus|semantic_no-bonus|false|false|contradiction|nonsense,,green|pink|mail boxes|light bulbs|objects|clowns,none,NA,Higher Degree,1553706645102,46,female,cooperative,English,NA,19,NA,NA,NA,NA,images/19NONE.PNG,5bedcd9bcca71f0001411fc0,NA,semantic_bonus,On the bonus card none of the objects are,NA,Wed Mar 27 2019 16:53:08 GMT+0000 (Greenwich Mean Time),1553705588247,17.61425,13,sentence_completion,NA
6855,NA,5111,21,semantic_bonus|semantic_no-bonus|false|false|contradiction|nonsense,,pans|jars|yellow|blue|objects|clowns,none,NA,Higher Degree,1553706645102,46,female,cooperative,English,NA,24,NA,NA,NA,NA,images/24NONE.PNG,5bedcd9bcca71f0001411fc0,NA,semantic_bonus,On the bonus card none of the objects are,NA,Wed Mar 27 2019 16:53:08 GMT+0000 (Greenwich Mean Time),1553705588247,17.61425,14,sentence_completion,NA
6855,NA,4819,21,semantic_bonus|semantic_no-bonus|false|false|contradiction|nonsense,,blue|green|envelopes|helicopters|objects|clowns,none,NA,Higher Degree,1553706645102,46,female,cooperative,English,NA,25,NA,NA,NA,NA,images/25NONE.PNG,5bedcd9bcca71f0001411fc0,NA,semantic_bonus,On the bonus card none of the objects are,NA,Wed Mar 27 2019 16:53:08 GMT+0000 (Greenwich Mean Time),1553705588247,17.61425,15,sentence_completion,NA
6855,NA,3584,21,semantic_bonus|semantic_no-bonus|false|false|contradiction|nonsense,,umbrellas|rockets|green|pink|objects|clowns,all,NA,Higher Degree,1553706645102,46,female,cooperative,English,NA,28,NA,NA,NA,NA,images/28ALL.PNG,5bedcd9bcca71f0001411fc0,NA,semantic_bonus,On the bonus card all of the objects are,NA,Wed Mar 27 2019 16:53:08 GMT+0000 (Greenwich Mean Time),1553705588247,17.61425,16,sentence_completion,NA
6855,NA,13301,21,pragmatic_bonus|pragmatic_no-bonus|false|false|tautology|nonsense,,beds|blue|donuts|green|objects|clowns,most,NA,Higher Degree,1553706645102,46,female,cooperative,English,NA,10,NA,NA,NA,NA,images/10MOST.PNG,5bedcd9bcca71f0001411fc0,NA,false,On the bonus card most of the objects are,NA,Wed Mar 27 2019 16:53:08 GMT+0000 (Greenwich Mean Time),1553705588247,17.61425,17,sentence_completion,NA
6855,NA,7685,21,semantic_bonus|semantic_no-bonus|false|false|contradiction|nonsense,,yellow|pink|combs|irons|objects|clowns,all,NA,Higher Degree,1553706645102,46,female,cooperative,English,NA,33,NA,NA,NA,NA,images/33ALL.PNG,5bedcd9bcca71f0001411fc0,NA,semantic_bonus,On the bonus card all of the objects are,NA,Wed Mar 27 2019 16:53:08 GMT+0000 (Greenwich Mean Time),1553705588247,17.61425,18,sentence_completion,NA
6855,NA,3705,21,semantic_bonus|semantic_no-bonus|false|false|contradiction|nonsense,,pink|green|TVs|fans|objects|clowns,all,NA,Higher Degree,1553706645102,46,female,cooperative,English,NA,31,NA,NA,NA,NA,images/31ALL.PNG,5bedcd9bcca71f0001411fc0,NA,semantic_bonus,On the bonus card all of the objects are,NA,Wed Mar 27 2019 16:53:08 GMT+0000 (Greenwich Mean Time),1553705588247,17.61425,19,sentence_completion,NA
6855,NA,7355,21,pragmatic_bonus|pragmatic_no-bonus|false|false|tautology|nonsense,,pink|keys|bowties|green|objects|clowns,most,NA,Higher Degree,1553706645102,46,female,cooperative,English,NA,07,NA,NA,NA,NA,images/07MOST.PNG,5bedcd9bcca71f0001411fc0,NA,pragmatic_no-bonus,On the bonus card most of the objects are,NA,Wed Mar 27 2019 16:53:08 GMT+0000 (Greenwich Mean Time),1553705588247,17.61425,20,sentence_completion,NA
6855,NA,7221,21,pragmatic_bonus|pragmatic_no-bonus|false|false|tautology|nonsense,,pumpkins|blue|mugs|green|objects|clowns,number,NA,Higher Degree,1553706645102,46,female,cooperative,English,NA,01,NA,NA,NA,NA,images/01NUM.PNG,5bedcd9bcca71f0001411fc0,NA,pragmatic_bonus,On the bonus card five of the objects are,NA,Wed Mar 27 2019 16:53:08 GMT+0000 (Greenwich Mean Time),1553705588247,17.61425,21,sentence_completion,NA
6855,NA,5023,21,semantic_bonus|semantic_no-bonus|false|false|contradiction|nonsense,,cars|sofas|blue|pink|objects|clowns,none,NA,Higher Degree,1553706645102,46,female,cooperative,English,NA,26,NA,NA,NA,NA,images/26NONE.PNG,5bedcd9bcca71f0001411fc0,NA,semantic_bonus,On the bonus card none of the objects are,NA,Wed Mar 27 2019 16:53:08 GMT+0000 (Greenwich Mean Time),1553705588247,17.61425,22,sentence_completion,NA
6855,NA,5971,21,pragmatic_bonus|pragmatic_no-bonus|false|false|tautology|nonsense,,pink|bells|yellow|hourglasses|objects|clowns,ad_hoc,NA,Higher Degree,1553706645102,46,female,cooperative,English,NA,18,NA,NA,NA,NA,images/18HOC.PNG,5bedcd9bcca71f0001411fc0,NA,false,On the bonus card the objects in the bottom row are,NA,Wed Mar 27 2019 16:53:08 GMT+0000 (Greenwich Mean Time),1553705588247,17.61425,23,sentence_completion,NA
6855,NA,6300,21,semantic_bonus|semantic_no-bonus|false|false|contradiction|nonsense,,blue|yellow|acorns|boots|objects|clowns,none,NA,Higher Degree,1553706645102,46,female,cooperative,English,NA,27,NA,NA,NA,NA,images/27NONE.PNG,5bedcd9bcca71f0001411fc0,NA,semantic_bonus,On the bonus card none of the objects are,NA,Wed Mar 27 2019 16:53:08 GMT+0000 (Greenwich Mean Time),1553705588247,17.61425,24,sentence_completion,NA
6855,NA,7873,21,pragmatic_bonus|pragmatic_no-bonus|false|false|tautology|nonsense,,blue|spoons|saws|yellow|objects|clowns,number,NA,Higher Degree,1553706645102,46,female,cooperative,English,NA,03,NA,NA,NA,NA,images/03NUM.PNG,5bedcd9bcca71f0001411fc0,NA,pragmatic_bonus,On the bonus card five of the objects are,NA,Wed Mar 27 2019 16:53:08 GMT+0000 (Greenwich Mean Time),1553705588247,17.61425,25,sentence_completion,NA
6855,NA,4645,21,semantic_bonus|semantic_no-bonus|false|false|contradiction|nonsense,,bottles|bikes|yellow|blue|objects|clowns,all,NA,Higher Degree,1553706645102,46,female,cooperative,English,NA,36,NA,NA,NA,NA,images/36ALL.PNG,5bedcd9bcca71f0001411fc0,NA,semantic_bonus,On the bonus card all of the objects are,NA,Wed Mar 27 2019 16:53:08 GMT+0000 (Greenwich Mean Time),1553705588247,17.61425,26,sentence_completion,NA
6855,NA,10872,21,pragmatic_bonus|pragmatic_no-bonus|false|false|tautology|nonsense,,yellow|flags|pink|sandwiches|objects|clowns,most,NA,Higher Degree,1553706645102,46,female,cooperative,English,NA,09,NA,NA,NA,NA,images/09MOST.PNG,5bedcd9bcca71f0001411fc0,NA,pragmatic_no-bonus,On the bonus card most of the objects are,NA,Wed Mar 27 2019 16:53:08 GMT+0000 (Greenwich Mean Time),1553705588247,17.61425,27,sentence_completion,NA
6855,NA,7969,21,semantic_bonus|semantic_no-bonus|false|false|contradiction|nonsense,,green|yellow|brooms|brushes|objects|clowns,all,NA,Higher Degree,1553706645102,46,female,cooperative,English,NA,29,NA,NA,NA,NA,images/29ALL.PNG,5bedcd9bcca71f0001411fc0,NA,semantic_bonus,On the bonus card all of the objects are,NA,Wed Mar 27 2019 16:53:08 GMT+0000 (Greenwich Mean Time),1553705588247,17.61425,28,sentence_completion,NA
6855,NA,5796,21,semantic_bonus|semantic_no-bonus|false|false|contradiction|nonsense,,shoes|trophies|pink|yellow|objects|clowns,all,NA,Higher Degree,1553706645102,46,female,cooperative,English,NA,30,NA,NA,NA,NA,images/30ALL.PNG,5bedcd9bcca71f0001411fc0,NA,semantic_bonus,On the bonus card all of the objects are,NA,Wed Mar 27 2019 16:53:08 GMT+0000 (Greenwich Mean Time),1553705588247,17.61425,29,sentence_completion,NA
6855,NA,8424,21,pragmatic_bonus|pragmatic_no-bonus|false|false|tautology|nonsense,,pink|books|hammers|blue|objects|clowns,most,NA,Higher Degree,1553706645102,46,female,cooperative,English,NA,11,NA,NA,NA,NA,images/11MOST.PNG,5bedcd9bcca71f0001411fc0,NA,pragmatic_no-bonus,On the bonus card most of the objects are,NA,Wed Mar 27 2019 16:53:08 GMT+0000 (Greenwich Mean Time),1553705588247,17.61425,30,sentence_completion,NA
6855,NA,22083,21,semantic_bonus|semantic_no-bonus|false|false|contradiction|nonsense,,blue|pink|trucks|saxophones|objects|clowns,none,NA,Higher Degree,1553706645102,46,female,cooperative,English,NA,23,NA,NA,NA,NA,images/23NONE.PNG,5bedcd9bcca71f0001411fc0,NA,semantic_bonus,On the bonus card none of the objects are,NA,Wed Mar 27 2019 16:53:08 GMT+0000 (Greenwich Mean Time),1553705588247,17.61425,31,sentence_completion,NA
6855,NA,6659,21,pragmatic_bonus|pragmatic_no-bonus|false|false|tautology|nonsense,,green|pears|yellow|buckets|objects|clowns,number,NA,Higher Degree,1553706645102,46,female,cooperative,English,NA,05,NA,NA,NA,NA,images/05NUM.PNG,5bedcd9bcca71f0001411fc0,NA,pragmatic_bonus,On the bonus card six of the objects are,NA,Wed Mar 27 2019 16:53:08 GMT+0000 (Greenwich Mean Time),1553705588247,17.61425,32,sentence_completion,NA
6855,NA,8131,21,pragmatic_bonus|pragmatic_no-bonus|false|false|tautology|nonsense,,crowns|blue|pink|pistols|objects|clowns,ad_hoc,NA,Higher Degree,1553706645102,46,female,cooperative,English,NA,14,NA,NA,NA,NA,images/14HOC.PNG,5bedcd9bcca71f0001411fc0,NA,pragmatic_no-bonus,On the bonus card the objects in the middle row are,NA,Wed Mar 27 2019 16:53:08 GMT+0000 (Greenwich Mean Time),1553705588247,17.61425,33,sentence_completion,NA
6855,NA,5866,21,pragmatic_bonus|pragmatic_no-bonus|false|false|tautology|nonsense,,green|toasters|pink|boats|objects|clowns,number,NA,Higher Degree,1553706645102,46,female,cooperative,English,NA,04,NA,NA,NA,NA,images/04NUM.PNG,5bedcd9bcca71f0001411fc0,NA,pragmatic_bonus,On the bonus card six of the objects are,NA,Wed Mar 27 2019 16:53:08 GMT+0000 (Greenwich Mean Time),1553705588247,17.61425,34,sentence_completion,NA
6855,NA,7244,21,pragmatic_bonus|pragmatic_no-bonus|false|false|tautology|nonsense,,lamps|yellow|green|phones|objects|clowns,most,NA,Higher Degree,1553706645102,46,female,cooperative,English,NA,08,NA,NA,NA,NA,images/08MOST.PNG,5bedcd9bcca71f0001411fc0,NA,pragmatic_no-bonus,On the bonus card most of the objects are,NA,Wed Mar 27 2019 16:53:08 GMT+0000 (Greenwich Mean Time),1553705588247,17.61425,35,sentence_completion,NA
6855,NA,12231,21,pragmatic_bonus|pragmatic_no-bonus|false|false|tautology|nonsense,,yellow|forks|blue|leaves|objects|clowns,ad_hoc,NA,Higher Degree,1553706645102,46,female,cooperative,English,NA,15,NA,NA,NA,NA,images/15HOC.PNG,5bedcd9bcca71f0001411fc0,NA,false,On the bonus card the objects in the bottom row are,NA,Wed Mar 27 2019 16:53:08 GMT+0000 (Greenwich Mean Time),1553705588247,17.61425,36,sentence_completion,NA
6855,NA,5733,21,NA,,NA,NA,NA,Higher Degree,1553706645102,46,female,cooperative,English,NA,NA,NA,NA,0%,100%,NA,5bedcd9bcca71f0001411fc0,NA,68,NA,NA,Wed Mar 27 2019 16:53:08 GMT+0000 (Greenwich Mean Time),1553705588247,17.61425,1,performance_rating,NA
6855,,6526,21,NA,,NA,bizarre,NA,Higher Degree,1553706645102,46,female,cooperative,English,NA,NA,true,false,NA,NA,NA,5bedcd9bcca71f0001411fc0,The moon has two ears.,false,NA,1,Wed Mar 27 2019 16:53:08 GMT+0000 (Greenwich Mean Time),1553705588247,17.61425,1,truth_value_judgements,number
6855,,6762,21,NA,,NA,bizarre,NA,Higher Degree,1553706645102,46,female,cooperative,English,NA,NA,true,false,NA,NA,NA,5bedcd9bcca71f0001411fc0,The earth owns seven books.,true,NA,5,Wed Mar 27 2019 16:53:08 GMT+0000 (Greenwich Mean Time),1553705588247,17.61425,2,truth_value_judgements,number
6855,,4889,21,NA,,NA,implicature,NA,Higher Degree,1553706645102,46,female,cooperative,English,NA,NA,true,false,NA,NA,NA,5bedcd9bcca71f0001411fc0,Some lizards are reptiles.,true,NA,2,Wed Mar 27 2019 16:53:08 GMT+0000 (Greenwich Mean Time),1553705588247,17.61425,3,truth_value_judgements,some
6855,,4818,21,NA,,NA,bizarre,NA,Higher Degree,1553706645102,46,female,cooperative,English,NA,NA,true,false,NA,NA,NA,5bedcd9bcca71f0001411fc0,All birds have telephones.,false,NA,1,Wed Mar 27 2019 16:53:08 GMT+0000 (Greenwich Mean Time),1553705588247,17.61425,4,truth_value_judgements,all
6855,,4884,21,NA,,NA,true,NA,Higher Degree,1553706645102,46,female,cooperative,English,NA,NA,true,false,NA,NA,NA,5bedcd9bcca71f0001411fc0,Most horses are tame.,false,NA,5,Wed Mar 27 2019 16:53:08 GMT+0000 (Greenwich Mean Time),1553705588247,17.61425,5,truth_value_judgements,most
6855,,6496,21,NA,,NA,true,NA,Higher Degree,1553706645102,46,female,cooperative,English,NA,NA,true,false,NA,NA,NA,5bedcd9bcca71f0001411fc0,All books have pages.,false,NA,1,Wed Mar 27 2019 16:53:08 GMT+0000 (Greenwich Mean Time),1553705588247,17.61425,6,truth_value_judgements,all
6855,,5465,21,NA,,NA,true,NA,Higher Degree,1553706645102,46,female,cooperative,English,NA,NA,true,false,NA,NA,NA,5bedcd9bcca71f0001411fc0,Most days in a year are working days.,true,NA,3,Wed Mar 27 2019 16:53:08 GMT+0000 (Greenwich Mean Time),1553705588247,17.61425,7,truth_value_judgements,most
6855,,5322,21,NA,,NA,bizarre,NA,Higher Degree,1553706645102,46,female,cooperative,English,NA,NA,true,false,NA,NA,NA,5bedcd9bcca71f0001411fc0,Some children are made of feathers.,false,NA,5,Wed Mar 27 2019 16:53:08 GMT+0000 (Greenwich Mean Time),1553705588247,17.61425,8,truth_value_judgements,some
6855,,12897,21,NA,,NA,implicature,NA,Higher Degree,1553706645102,46,female,cooperative,English,NA,NA,true,false,NA,NA,NA,5bedcd9bcca71f0001411fc0,A human hand has two fingers.,false,NA,2,Wed Mar 27 2019 16:53:08 GMT+0000 (Greenwich Mean Time),1553705588247,17.61425,9,truth_value_judgements,number
6855,,5063,21,NA,,NA,bizarre,NA,Higher Degree,1553706645102,46,female,cooperative,English,NA,NA,true,false,NA,NA,NA,5bedcd9bcca71f0001411fc0,Most motorcycles like music.,false,NA,3,Wed Mar 27 2019 16:53:08 GMT+0000 (Greenwich Mean Time),1553705588247,17.61425,10,truth_value_judgements,most
6855,,5233,21,NA,,NA,true,NA,Higher Degree,1553706645102,46,female,cooperative,English,NA,NA,true,false,NA,NA,NA,5bedcd9bcca71f0001411fc0,All crocodiles are reptiles.,true,NA,7,Wed Mar 27 2019 16:53:08 GMT+0000 (Greenwich Mean Time),1553705588247,17.61425,11,truth_value_judgements,all
6855,,4803,21,NA,,NA,true,NA,Higher Degree,1553706645102,46,female,cooperative,English,NA,NA,true,false,NA,NA,NA,5bedcd9bcca71f0001411fc0,Some tools are made of wood..,true,NA,3,Wed Mar 27 2019 16:53:08 GMT+0000 (Greenwich Mean Time),1553705588247,17.61425,12,truth_value_judgements,some
6855,,4625,21,NA,,NA,true,NA,Higher Degree,1553706645102,46,female,cooperative,English,NA,NA,true,false,NA,NA,NA,5bedcd9bcca71f0001411fc0,Some dresses have pockets.,true,NA,2,Wed Mar 27 2019 16:53:08 GMT+0000 (Greenwich Mean Time),1553705588247,17.61425,13,truth_value_judgements,some
6855,,4842,21,NA,,NA,bizarre,NA,Higher Degree,1553706645102,46,female,cooperative,English,NA,NA,true,false,NA,NA,NA,5bedcd9bcca71f0001411fc0,All garages sing.,false,NA,4,Wed Mar 27 2019 16:53:08 GMT+0000 (Greenwich Mean Time),1553705588247,17.61425,14,truth_value_judgements,all
6855,,4536,21,NA,,NA,implicature,NA,Higher Degree,1553706645102,46,female,cooperative,English,NA,NA,true,false,NA,NA,NA,5bedcd9bcca71f0001411fc0,Most snakes are reptiles.,true,NA,3,Wed Mar 27 2019 16:53:08 GMT+0000 (Greenwich Mean Time),1553705588247,17.61425,15,truth_value_judgements,most
6855,,4577,21,NA,,NA,bizarre,NA,Higher Degree,1553706645102,46,female,cooperative,English,NA,NA,true,false,NA,NA,NA,5bedcd9bcca71f0001411fc0,A week consists of five people.,false,NA,4,Wed Mar 27 2019 16:53:08 GMT+0000 (Greenwich Mean Time),1553705588247,17.61425,16,truth_value_judgements,number
6855,,4401,21,NA,,NA,bizarre,NA,Higher Degree,1553706645102,46,female,cooperative,English,NA,NA,true,false,NA,NA,NA,5bedcd9bcca71f0001411fc0,Most chairs are hungry.,false,NA,2,Wed Mar 27 2019 16:53:08 GMT+0000 (Greenwich Mean Time),1553705588247,17.61425,17,truth_value_judgements,most
6855,,4546,21,NA,,NA,bizarre,NA,Higher Degree,1553706645102,46,female,cooperative,English,NA,NA,true,false,NA,NA,NA,5bedcd9bcca71f0001411fc0,Forests last three nights.,false,NA,3,Wed Mar 27 2019 16:53:08 GMT+0000 (Greenwich Mean Time),1553705588247,17.61425,18,truth_value_judgements,number
6855,,4454,21,NA,,NA,bizarre,NA,Higher Degree,1553706645102,46,female,cooperative,English,NA,NA,true,false,NA,NA,NA,5bedcd9bcca71f0001411fc0,Most sofas are friendly.,false,NA,4,Wed Mar 27 2019 16:53:08 GMT+0000 (Greenwich Mean Time),1553705588247,17.61425,19,truth_value_judgements,most
6855,,5030,21,NA,,NA,implicature,NA,Higher Degree,1553706645102,46,female,cooperative,English,NA,NA,true,false,NA,NA,NA,5bedcd9bcca71f0001411fc0,The universe contains three planets.,true,NA,3,Wed Mar 27 2019 16:53:08 GMT+0000 (Greenwich Mean Time),1553705588247,17.61425,20,truth_value_judgements,number
6855,,6553,21,NA,,NA,implicature,NA,Higher Degree,1553706645102,46,female,cooperative,English,NA,NA,true,false,NA,NA,NA,5bedcd9bcca71f0001411fc0,Modern cars have three wheels.,false,NA,1,Wed Mar 27 2019 16:53:08 GMT+0000 (Greenwich Mean Time),1553705588247,17.61425,21,truth_value_judgements,number
6855,,4992,21,NA,,NA,true,NA,Higher Degree,1553706645102,46,female,cooperative,English,NA,NA,true,false,NA,NA,NA,5bedcd9bcca71f0001411fc0,Most people know more than one language.,false,NA,4,Wed Mar 27 2019 16:53:08 GMT+0000 (Greenwich Mean Time),1553705588247,17.61425,22,truth_value_judgements,most
6855,,6986,21,NA,,NA,true,NA,Higher Degree,1553706645102,46,female,cooperative,English,NA,NA,true,false,NA,NA,NA,5bedcd9bcca71f0001411fc0,All dogs are mammals.,true,NA,9,Wed Mar 27 2019 16:53:08 GMT+0000 (Greenwich Mean Time),1553705588247,17.61425,23,truth_value_judgements,all
6855,,4724,21,NA,,NA,bizarre,NA,Higher Degree,1553706645102,46,female,cooperative,English,NA,NA,true,false,NA,NA,NA,5bedcd9bcca71f0001411fc0,Some stores are made of bubbles.,false,NA,4,Wed Mar 27 2019 16:53:08 GMT+0000 (Greenwich Mean Time),1553705588247,17.61425,24,truth_value_judgements,some
6855,,6306,21,NA,,NA,true,NA,Higher Degree,1553706645102,46,female,cooperative,English,NA,NA,true,false,NA,NA,NA,5bedcd9bcca71f0001411fc0,All refrigerators have doors.,false,NA,5,Wed Mar 27 2019 16:53:08 GMT+0000 (Greenwich Mean Time),1553705588247,17.61425,25,truth_value_judgements,all
6855,,6692,21,NA,,NA,true,NA,Higher Degree,1553706645102,46,female,cooperative,English,NA,NA,true,false,NA,NA,NA,5bedcd9bcca71f0001411fc0,All hammers have a handle.,false,NA,2,Wed Mar 27 2019 16:53:08 GMT+0000 (Greenwich Mean Time),1553705588247,17.61425,26,truth_value_judgements,all
6855,,4694,21,NA,,NA,true,NA,Higher Degree,1553706645102,46,female,cooperative,English,NA,NA,true,false,NA,NA,NA,5bedcd9bcca71f0001411fc0,Some flowers are yellow.,true,NA,1,Wed Mar 27 2019 16:53:08 GMT+0000 (Greenwich Mean Time),1553705588247,17.61425,27,truth_value_judgements,some
6855,,4719,21,NA,,NA,true,NA,Higher Degree,1553706645102,46,female,cooperative,English,NA,NA,true,false,NA,NA,NA,5bedcd9bcca71f0001411fc0,Some drinks are made from chocolate.,true,NA,5,Wed Mar 27 2019 16:53:08 GMT+0000 (Greenwich Mean Time),1553705588247,17.61425,28,truth_value_judgements,some
6855,,4835,21,NA,,NA,true,NA,Higher Degree,1553706645102,46,female,cooperative,English,NA,NA,true,false,NA,NA,NA,5bedcd9bcca71f0001411fc0,All eagles are birds.,false,NA,8,Wed Mar 27 2019 16:53:08 GMT+0000 (Greenwich Mean Time),1553705588247,17.61425,29,truth_value_judgements,all
6855,,4534,21,NA,,NA,true,NA,Higher Degree,1553706645102,46,female,cooperative,English,NA,NA,true,false,NA,NA,NA,5bedcd9bcca71f0001411fc0,Cats have four legs.,true,NA,4,Wed Mar 27 2019 16:53:08 GMT+0000 (Greenwich Mean Time),1553705588247,17.61425,30,truth_value_judgements,number
6855,,4549,21,NA,,NA,implicature,NA,Higher Degree,1553706645102,46,female,cooperative,English,NA,NA,true,false,NA,NA,NA,5bedcd9bcca71f0001411fc0,Some owls are birds.,true,NA,3,Wed Mar 27 2019 16:53:08 GMT+0000 (Greenwich Mean Time),1553705588247,17.61425,31,truth_value_judgements,some
6855,,4457,21,NA,,NA,true,NA,Higher Degree,1553706645102,46,female,cooperative,English,NA,NA,true,false,NA,NA,NA,5bedcd9bcca71f0001411fc0,A normal motorcycle has two wheels.,true,NA,1,Wed Mar 27 2019 16:53:08 GMT+0000 (Greenwich Mean Time),1553705588247,17.61425,32,truth_value_judgements,number
6855,,4470,21,NA,,NA,implicature,NA,Higher Degree,1553706645102,46,female,cooperative,English,NA,NA,true,false,NA,NA,NA,5bedcd9bcca71f0001411fc0,Most horses are mammals.,true,NA,2,Wed Mar 27 2019 16:53:08 GMT+0000 (Greenwich Mean Time),1553705588247,17.61425,33,truth_value_judgements,most
6855,,6890,21,NA,,NA,true,NA,Higher Degree,1553706645102,46,female,cooperative,English,NA,NA,true,false,NA,NA,NA,5bedcd9bcca71f0001411fc0,Monkeys have five fingers on each hand.,true,NA,2,Wed Mar 27 2019 16:53:08 GMT+0000 (Greenwich Mean Time),1553705588247,17.61425,34,truth_value_judgements,number
6855,,4465,21,NA,,NA,true,NA,Higher Degree,1553706645102,46,female,cooperative,English,NA,NA,true,false,NA,NA,NA,5bedcd9bcca71f0001411fc0,Most people know their parents.,true,NA,1,Wed Mar 27 2019 16:53:08 GMT+0000 (Greenwich Mean Time),1553705588247,17.61425,35,truth_value_judgements,most
6855,,4587,21,NA,,NA,implicature,NA,Higher Degree,1553706645102,46,female,cooperative,English,NA,NA,true,false,NA,NA,NA,5bedcd9bcca71f0001411fc0,Most sharks are fish.,true,NA,1,Wed Mar 27 2019 16:53:08 GMT+0000 (Greenwich Mean Time),1553705588247,17.61425,36,truth_value_judgements,most
6855,,6518,21,NA,,NA,bizarre,NA,Higher Degree,1553706645102,46,female,cooperative,English,NA,NA,true,false,NA,NA,NA,5bedcd9bcca71f0001411fc0,All chairs tell time.,false,NA,3,Wed Mar 27 2019 16:53:08 GMT+0000 (Greenwich Mean Time),1553705588247,17.61425,37,truth_value_judgements,all
6855,,16521,21,NA,,NA,implicature,NA,Higher Degree,1553706645102,46,female,cooperative,English,NA,NA,true,false,NA,NA,NA,5bedcd9bcca71f0001411fc0,Most elephants are mammals.,true,NA,5,Wed Mar 27 2019 16:53:08 GMT+0000 (Greenwich Mean Time),1553705588247,17.61425,38,truth_value_judgements,most
6855,,18967,21,NA,,NA,true,NA,Higher Degree,1553706645102,46,female,cooperative,English,NA,NA,true,false,NA,NA,NA,5bedcd9bcca71f0001411fc0,All salmon are fish.,true,NA,6,Wed Mar 27 2019 16:53:08 GMT+0000 (Greenwich Mean Time),1553705588247,17.61425,39,truth_value_judgements,all
6855,,12755,21,NA,,NA,implicature,NA,Higher Degree,1553706645102,46,female,cooperative,English,NA,NA,true,false,NA,NA,NA,5bedcd9bcca71f0001411fc0,Most pigeons are birds.,true,NA,4,Wed Mar 27 2019 16:53:08 GMT+0000 (Greenwich Mean Time),1553705588247,17.61425,40,truth_value_judgements,most
6855,,4458,21,NA,,NA,implicature,NA,Higher Degree,1553706645102,46,female,cooperative,English,NA,NA,true,false,NA,NA,NA,5bedcd9bcca71f0001411fc0,Some ants are insects.,true,NA,4,Wed Mar 27 2019 16:53:08 GMT+0000 (Greenwich Mean Time),1553705588247,17.61425,41,truth_value_judgements,some
6855,,9296,21,NA,,NA,bizarre,NA,Higher Degree,1553706645102,46,female,cooperative,English,NA,NA,true,false,NA,NA,NA,5bedcd9bcca71f0001411fc0,Some fruits have computers.,false,NA,2,Wed Mar 27 2019 16:53:08 GMT+0000 (Greenwich Mean Time),1553705588247,17.61425,42,truth_value_judgements,some
6855,,4484,21,NA,,NA,true,NA,Higher Degree,1553706645102,46,female,cooperative,English,NA,NA,true,false,NA,NA,NA,5bedcd9bcca71f0001411fc0,Humans have two eyes.,true,NA,5,Wed Mar 27 2019 16:53:08 GMT+0000 (Greenwich Mean Time),1553705588247,17.61425,43,truth_value_judgements,number
6855,,20724,21,NA,,NA,bizarre,NA,Higher Degree,1553706645102,46,female,cooperative,English,NA,NA,true,false,NA,NA,NA,5bedcd9bcca71f0001411fc0,All crayons have noses.,false,NA,2,Wed Mar 27 2019 16:53:08 GMT+0000 (Greenwich Mean Time),1553705588247,17.61425,44,truth_value_judgements,all
6855,,4611,21,NA,,NA,bizarre,NA,Higher Degree,1553706645102,46,female,cooperative,English,NA,NA,true,false,NA,NA,NA,5bedcd9bcca71f0001411fc0,Some fish are made of leaves.,false,NA,1,Wed Mar 27 2019 16:53:08 GMT+0000 (Greenwich Mean Time),1553705588247,17.61425,45,truth_value_judgements,some
6855,,4503,21,NA,,NA,implicature,NA,Higher Degree,1553706645102,46,female,cooperative,English,NA,NA,true,false,NA,NA,NA,5bedcd9bcca71f0001411fc0,Some trouts are fish.,true,NA,1,Wed Mar 27 2019 16:53:08 GMT+0000 (Greenwich Mean Time),1553705588247,17.61425,46,truth_value_judgements,some
6855,,4441,21,NA,,NA,true,NA,Higher Degree,1553706645102,46,female,cooperative,English,NA,NA,true,false,NA,NA,NA,5bedcd9bcca71f0001411fc0,Most birds can fly.,true,NA,2,Wed Mar 27 2019 16:53:08 GMT+0000 (Greenwich Mean Time),1553705588247,17.61425,47,truth_value_judgements,most
6855,,4491,21,NA,,NA,bizarre,NA,Higher Degree,1553706645102,46,female,cooperative,English,NA,NA,true,false,NA,NA,NA,5bedcd9bcca71f0001411fc0,Some books are good to eat.,true,NA,3,Wed Mar 27 2019 16:53:08 GMT+0000 (Greenwich Mean Time),1553705588247,17.61425,48,truth_value_judgements,some
6855,,5793,21,NA,,NA,bizarre,NA,Higher Degree,1553706645102,46,female,cooperative,English,NA,NA,true,false,NA,NA,NA,5bedcd9bcca71f0001411fc0,Most elephants have glasses.,false,NA,1,Wed Mar 27 2019 16:53:08 GMT+0000 (Greenwich Mean Time),1553705588247,17.61425,49,truth_value_judgements,most
6855,,5601,21,NA,,NA,true,NA,Higher Degree,1553706645102,46,female,cooperative,English,NA,NA,true,false,NA,NA,NA,5bedcd9bcca71f0001411fc0,All beetles are insects.,false,NA,10,Wed Mar 27 2019 16:53:08 GMT+0000 (Greenwich Mean Time),1553705588247,17.61425,50,truth_value_judgements,all
6855,,4487,21,NA,,NA,bizarre,NA,Higher Degree,1553706645102,46,female,cooperative,English,NA,NA,true,false,NA,NA,NA,5bedcd9bcca71f0001411fc0,Most tigers are literate.,false,NA,5,Wed Mar 27 2019 16:53:08 GMT+0000 (Greenwich Mean Time),1553705588247,17.61425,51,truth_value_judgements,most
6855,,5059,21,NA,,NA,bizarre,NA,Higher Degree,1553706645102,46,female,cooperative,English,NA,NA,true,false,NA,NA,NA,5bedcd9bcca71f0001411fc0,Guitars have four legs.,false,NA,2,Wed Mar 27 2019 16:53:08 GMT+0000 (Greenwich Mean Time),1553705588247,17.61425,52,truth_value_judgements,number
6855,,4458,21,NA,,NA,true,NA,Higher Degree,1553706645102,46,female,cooperative,English,NA,NA,true,false,NA,NA,NA,5bedcd9bcca71f0001411fc0,A week has seven days.,true,NA,3,Wed Mar 27 2019 16:53:08 GMT+0000 (Greenwich Mean Time),1553705588247,17.61425,53,truth_value_judgements,number
6855,,5794,21,NA,,NA,implicature,NA,Higher Degree,1553706645102,46,female,cooperative,English,NA,NA,true,false,NA,NA,NA,5bedcd9bcca71f0001411fc0,Monkeys have three bones.,false,NA,5,Wed Mar 27 2019 16:53:08 GMT+0000 (Greenwich Mean Time),1553705588247,17.61425,54,truth_value_judgements,number
6855,,4748,21,NA,,NA,implicature,NA,Higher Degree,1553706645102,46,female,cooperative,English,NA,NA,true,false,NA,NA,NA,5bedcd9bcca71f0001411fc0,A year has 245 days.,false,NA,4,Wed Mar 27 2019 16:53:08 GMT+0000 (Greenwich Mean Time),1553705588247,17.61425,55,truth_value_judgements,number
6855,,4547,21,NA,,NA,true,NA,Higher Degree,1553706645102,46,female,cooperative,English,NA,NA,true,false,NA,NA,NA,5bedcd9bcca71f0001411fc0,All elephants have trunks.,true,NA,4,Wed Mar 27 2019 16:53:08 GMT+0000 (Greenwich Mean Time),1553705588247,17.61425,56,truth_value_judgements,all
6855,,4634,21,NA,,NA,implicature,NA,Higher Degree,1553706645102,46,female,cooperative,English,NA,NA,true,false,NA,NA,NA,5bedcd9bcca71f0001411fc0,Some cats are mammals.,true,NA,5,Wed Mar 27 2019 16:53:08 GMT+0000 (Greenwich Mean Time),1553705588247,17.61425,57,truth_value_judgements,some
6855,,4458,21,NA,,NA,true,NA,Higher Degree,1553706645102,46,female,cooperative,English,NA,NA,true,false,NA,NA,NA,5bedcd9bcca71f0001411fc0,All robins have wings.,true,NA,3,Wed Mar 27 2019 16:53:08 GMT+0000 (Greenwich Mean Time),1553705588247,17.61425,58,truth_value_judgements,all
6855,,4449,21,NA,,NA,bizarre,NA,Higher Degree,1553706645102,46,female,cooperative,English,NA,NA,true,false,NA,NA,NA,5bedcd9bcca71f0001411fc0,All couches have windows.,false,NA,5,Wed Mar 27 2019 16:53:08 GMT+0000 (Greenwich Mean Time),1553705588247,17.61425,59,truth_value_judgements,all
6855,,4406,21,NA,,NA,true,NA,Higher Degree,1553706645102,46,female,cooperative,English,NA,NA,true,false,NA,NA,NA,5bedcd9bcca71f0001411fc0,Some children are blond.,true,NA,4,Wed Mar 27 2019 16:53:08 GMT+0000 (Greenwich Mean Time),1553705588247,17.61425,60,truth_value_judgements,some
6854,NA,3977,27,NA,,NA,NA,12,Higher Degree,1553706478609,46,female,competitive,English,0,NA,NA,NA,NA,NA,images/Plate1.png,55bf948ffdf99b2d6e385a5d,Please type the number you see in the picture above into the textbox. Please write 'none' if you do not see anything?,12,NA,NA,Wed Mar 27 2019 16:53:47 GMT+0000 (Greenwich Mean Time),1553705627464,14.18575,1,color_blindness_test,NA
6854,NA,3724,27,NA,,NA,NA,45,Higher Degree,1553706478609,46,female,competitive,English,0,NA,NA,NA,NA,NA,images/Plate9.png,55bf948ffdf99b2d6e385a5d,Please type the number you see in the picture above into the textbox. Please write 'none' if you do not see anything?,45,NA,NA,Wed Mar 27 2019 16:53:47 GMT+0000 (Greenwich Mean Time),1553705627464,14.18575,2,color_blindness_test,NA
6854,NA,7573,27,NA,,NA,NA,73,Higher Degree,1553706478609,46,female,competitive,English,0,NA,NA,NA,NA,NA,images/Plate13.png,55bf948ffdf99b2d6e385a5d,Please type the number you see in the picture above into the textbox. Please write 'none' if you do not see anything?,73,NA,NA,Wed Mar 27 2019 16:53:47 GMT+0000 (Greenwich Mean Time),1553705627464,14.18575,3,color_blindness_test,NA
6854,NA,3802,27,NA,,NA,NA,NA,Higher Degree,1553706478609,46,female,competitive,English,NA,NA,red,green,NA,NA,NA,55bf948ffdf99b2d6e385a5d,Which color is the box surrounding the bonus card?,green,NA,NA,Wed Mar 27 2019 16:53:47 GMT+0000 (Greenwich Mean Time),1553705627464,14.18575,1,comprehension_test,NA
6854,NA,3485,27,NA,,NA,NA,NA,Higher Degree,1553706478609,46,female,competitive,English,NA,NA,yes,no,NA,NA,NA,55bf948ffdf99b2d6e385a5d,Are you allowed to select words that make the whole descriptions false?,yes,NA,NA,Wed Mar 27 2019 16:53:47 GMT+0000 (Greenwich Mean Time),1553705627464,14.18575,2,comprehension_test,NA
6854,NA,3036,27,NA,,NA,NA,NA,Higher Degree,1553706478609,46,female,competitive,English,NA,NA,help,mislead,NA,NA,NA,55bf948ffdf99b2d6e385a5d,"Is your goal to help the guesser find the bonus card, or should you mislead the guesser to pick the other card instead?",mislead,NA,NA,Wed Mar 27 2019 16:53:47 GMT+0000 (Greenwich Mean Time),1553705627464,14.18575,3,comprehension_test,NA
6854,NA,11044,27,pragmatic_bonus|pragmatic_no-bonus|false|false|tautology|nonsense,,green|apples|guitars|yellow|objects|clowns,ad_hoc,NA,Higher Degree,1553706478609,46,female,competitive,English,NA,17,NA,NA,NA,NA,images/17HOC.PNG,55bf948ffdf99b2d6e385a5d,NA,pragmatic_bonus,On the bonus card the objects in the middle row are,NA,Wed Mar 27 2019 16:53:47 GMT+0000 (Greenwich Mean Time),1553705627464,14.18575,1,sentence_completion,NA
6854,NA,11676,27,pragmatic_bonus|pragmatic_no-bonus|false|false|tautology|nonsense,,bathtubs|pink|candles|yellow|objects|clowns,number,NA,Higher Degree,1553706478609,46,female,competitive,English,NA,06,NA,NA,NA,NA,images/06NUM.PNG,55bf948ffdf99b2d6e385a5d,NA,pragmatic_bonus,On the bonus card six of the objects are,NA,Wed Mar 27 2019 16:53:47 GMT+0000 (Greenwich Mean Time),1553705627464,14.18575,2,sentence_completion,NA
6854,NA,12890,27,semantic_bonus|semantic_no-bonus|false|false|contradiction|nonsense,,pink|yellow|onions|rackets|objects|clowns,none,NA,Higher Degree,1553706478609,46,female,competitive,English,NA,21,NA,NA,NA,NA,images/21NONE.PNG,55bf948ffdf99b2d6e385a5d,NA,semantic_no-bonus,On the bonus card none of the objects are,NA,Wed Mar 27 2019 16:53:47 GMT+0000 (Greenwich Mean Time),1553705627464,14.18575,3,sentence_completion,NA
6854,NA,18287,27,semantic_bonus|semantic_no-bonus|false|false|contradiction|nonsense,,blue|yellow|acorns|boots|objects|clowns,none,NA,Higher Degree,1553706478609,46,female,competitive,English,NA,27,NA,NA,NA,NA,images/27NONE.PNG,55bf948ffdf99b2d6e385a5d,NA,semantic_no-bonus,On the bonus card none of the objects are,NA,Wed Mar 27 2019 16:53:47 GMT+0000 (Greenwich Mean Time),1553705627464,14.18575,4,sentence_completion,NA
6854,NA,10141,27,semantic_bonus|semantic_no-bonus|false|false|contradiction|nonsense,,blue|green|envelopes|helicopters|objects|clowns,none,NA,Higher Degree,1553706478609,46,female,competitive,English,NA,25,NA,NA,NA,NA,images/25NONE.PNG,55bf948ffdf99b2d6e385a5d,NA,semantic_no-bonus,On the bonus card none of the objects are,NA,Wed Mar 27 2019 16:53:47 GMT+0000 (Greenwich Mean Time),1553705627464,14.18575,5,sentence_completion,NA
6854,NA,11859,27,pragmatic_bonus|pragmatic_no-bonus|false|false|tautology|nonsense,,yellow|flags|pink|sandwiches|objects|clowns,most,NA,Higher Degree,1553706478609,46,female,competitive,English,NA,09,NA,NA,NA,NA,images/09MOST.PNG,55bf948ffdf99b2d6e385a5d,NA,pragmatic_no-bonus,On the bonus card most of the objects are,NA,Wed Mar 27 2019 16:53:47 GMT+0000 (Greenwich Mean Time),1553705627464,14.18575,6,sentence_completion,NA
6854,NA,13618,27,pragmatic_bonus|pragmatic_no-bonus|false|false|tautology|nonsense,,beds|blue|donuts|green|objects|clowns,most,NA,Higher Degree,1553706478609,46,female,competitive,English,NA,10,NA,NA,NA,NA,images/10MOST.PNG,55bf948ffdf99b2d6e385a5d,NA,false,On the bonus card most of the objects are,NA,Wed Mar 27 2019 16:53:47 GMT+0000 (Greenwich Mean Time),1553705627464,14.18575,7,sentence_completion,NA
6854,NA,8798,27,pragmatic_bonus|pragmatic_no-bonus|false|false|tautology|nonsense,,flowers|blue|yellow|scissors|objects|clowns,most,NA,Higher Degree,1553706478609,46,female,competitive,English,NA,12,NA,NA,NA,NA,images/12MOST.PNG,55bf948ffdf99b2d6e385a5d,NA,pragmatic_bonus,On the bonus card most of the objects are,NA,Wed Mar 27 2019 16:53:47 GMT+0000 (Greenwich Mean Time),1553705627464,14.18575,8,sentence_completion,NA
6854,NA,8491,27,pragmatic_bonus|pragmatic_no-bonus|false|false|tautology|nonsense,,green|pears|yellow|buckets|objects|clowns,number,NA,Higher Degree,1553706478609,46,female,competitive,English,NA,05,NA,NA,NA,NA,images/05NUM.PNG,55bf948ffdf99b2d6e385a5d,NA,pragmatic_no-bonus,On the bonus card six of the objects are,NA,Wed Mar 27 2019 16:53:47 GMT+0000 (Greenwich Mean Time),1553705627464,14.18575,9,sentence_completion,NA
6854,NA,7370,27,pragmatic_bonus|pragmatic_no-bonus|false|false|tautology|nonsense,,green|toasters|pink|boats|objects|clowns,number,NA,Higher Degree,1553706478609,46,female,competitive,English,NA,04,NA,NA,NA,NA,images/04NUM.PNG,55bf948ffdf99b2d6e385a5d,NA,pragmatic_no-bonus,On the bonus card six of the objects are,NA,Wed Mar 27 2019 16:53:47 GMT+0000 (Greenwich Mean Time),1553705627464,14.18575,10,sentence_completion,NA
6854,NA,11317,27,pragmatic_bonus|pragmatic_no-bonus|false|false|tautology|nonsense,,vases|pink|green|diamonds|objects|clowns,ad_hoc,NA,Higher Degree,1553706478609,46,female,competitive,English,NA,16,NA,NA,NA,NA,images/16HOC.PNG,55bf948ffdf99b2d6e385a5d,NA,pragmatic_no-bonus,On the bonus card the objects in the top row are,NA,Wed Mar 27 2019 16:53:47 GMT+0000 (Greenwich Mean Time),1553705627464,14.18575,11,sentence_completion,NA
6854,NA,5966,27,pragmatic_bonus|pragmatic_no-bonus|false|false|tautology|nonsense,,blue|spoons|saws|yellow|objects|clowns,number,NA,Higher Degree,1553706478609,46,female,competitive,English,NA,03,NA,NA,NA,NA,images/03NUM.PNG,55bf948ffdf99b2d6e385a5d,NA,pragmatic_no-bonus,On the bonus card five of the objects are,NA,Wed Mar 27 2019 16:53:47 GMT+0000 (Greenwich Mean Time),1553705627464,14.18575,12,sentence_completion,NA
6854,NA,4398,27,semantic_bonus|semantic_no-bonus|false|false|contradiction|nonsense,,pink|green|TVs|fans|objects|clowns,all,NA,Higher Degree,1553706478609,46,female,competitive,English,NA,31,NA,NA,NA,NA,images/31ALL.PNG,55bf948ffdf99b2d6e385a5d,NA,semantic_no-bonus,On the bonus card all of the objects are,NA,Wed Mar 27 2019 16:53:47 GMT+0000 (Greenwich Mean Time),1553705627464,14.18575,13,sentence_completion,NA
6854,NA,6993,27,pragmatic_bonus|pragmatic_no-bonus|false|false|tautology|nonsense,,pineapples|pink|blue|socks|objects|clowns,number,NA,Higher Degree,1553706478609,46,female,competitive,English,NA,02,NA,NA,NA,NA,images/02NUM.PNG,55bf948ffdf99b2d6e385a5d,NA,pragmatic_no-bonus,On the bonus card five of the objects are,NA,Wed Mar 27 2019 16:53:47 GMT+0000 (Greenwich Mean Time),1553705627464,14.18575,14,sentence_completion,NA
6854,NA,3083,27,semantic_bonus|semantic_no-bonus|false|false|contradiction|nonsense,,kettles|bananas|blue|green|objects|clowns,none,NA,Higher Degree,1553706478609,46,female,competitive,English,NA,22,NA,NA,NA,NA,images/22NONE.PNG,55bf948ffdf99b2d6e385a5d,NA,semantic_no-bonus,On the bonus card none of the objects are,NA,Wed Mar 27 2019 16:53:47 GMT+0000 (Greenwich Mean Time),1553705627464,14.18575,15,sentence_completion,NA
6854,NA,5588,27,semantic_bonus|semantic_no-bonus|false|false|contradiction|nonsense,,drums|tents|green|yellow|objects|clowns,all,NA,Higher Degree,1553706478609,46,female,competitive,English,NA,32,NA,NA,NA,NA,images/32ALL.PNG,55bf948ffdf99b2d6e385a5d,NA,semantic_no-bonus,On the bonus card all of the objects are,NA,Wed Mar 27 2019 16:53:47 GMT+0000 (Greenwich Mean Time),1553705627464,14.18575,16,sentence_completion,NA
6854,NA,36127,27,semantic_bonus|semantic_no-bonus|false|false|contradiction|nonsense,,green|yellow|brooms|brushes|objects|clowns,all,NA,Higher Degree,1553706478609,46,female,competitive,English,NA,29,NA,NA,NA,NA,images/29ALL.PNG,55bf948ffdf99b2d6e385a5d,NA,semantic_no-bonus,On the bonus card all of the objects are,NA,Wed Mar 27 2019 16:53:47 GMT+0000 (Greenwich Mean Time),1553705627464,14.18575,17,sentence_completion,NA
6854,NA,5552,27,semantic_bonus|semantic_no-bonus|false|false|contradiction|nonsense,,cakes|teapots|green|yellow|objects|clowns,none,NA,Higher Degree,1553706478609,46,female,competitive,English,NA,20,NA,NA,NA,NA,images/20NONE.PNG,55bf948ffdf99b2d6e385a5d,NA,semantic_no-bonus,On the bonus card none of the objects are,NA,Wed Mar 27 2019 16:53:47 GMT+0000 (Greenwich Mean Time),1553705627464,14.18575,18,sentence_completion,NA
6854,NA,3972,27,semantic_bonus|semantic_no-bonus|false|false|contradiction|nonsense,,shoes|trophies|pink|yellow|objects|clowns,all,NA,Higher Degree,1553706478609,46,female,competitive,English,NA,30,NA,NA,NA,NA,images/30ALL.PNG,55bf948ffdf99b2d6e385a5d,NA,semantic_no-bonus,On the bonus card all of the objects are,NA,Wed Mar 27 2019 16:53:47 GMT+0000 (Greenwich Mean Time),1553705627464,14.18575,19,sentence_completion,NA
6854,NA,2777,27,semantic_bonus|semantic_no-bonus|false|false|contradiction|nonsense,,trumpets|carrots|green|blue|objects|clowns,all,NA,Higher Degree,1553706478609,46,female,competitive,English,NA,34,NA,NA,NA,NA,images/34ALL.PNG,55bf948ffdf99b2d6e385a5d,NA,semantic_no-bonus,On the bonus card all of the objects are,NA,Wed Mar 27 2019 16:53:47 GMT+0000 (Greenwich Mean Time),1553705627464,14.18575,20,sentence_completion,NA
6854,NA,3299,27,semantic_bonus|semantic_no-bonus|false|false|contradiction|nonsense,,blue|pink|feathers|vases|objects|clowns,all,NA,Higher Degree,1553706478609,46,female,competitive,English,NA,35,NA,NA,NA,NA,images/35ALL.PNG,55bf948ffdf99b2d6e385a5d,NA,semantic_no-bonus,On the bonus card all of the objects are,NA,Wed Mar 27 2019 16:53:47 GMT+0000 (Greenwich Mean Time),1553705627464,14.18575,21,sentence_completion,NA
6854,NA,4832,27,pragmatic_bonus|pragmatic_no-bonus|false|false|tautology|nonsense,,crowns|blue|pink|pistols|objects|clowns,ad_hoc,NA,Higher Degree,1553706478609,46,female,competitive,English,NA,14,NA,NA,NA,NA,images/14HOC.PNG,55bf948ffdf99b2d6e385a5d,NA,pragmatic_no-bonus,On the bonus card the objects in the middle row are,NA,Wed Mar 27 2019 16:53:47 GMT+0000 (Greenwich Mean Time),1553705627464,14.18575,22,sentence_completion,NA
6854,NA,4862,27,semantic_bonus|semantic_no-bonus|false|false|contradiction|nonsense,,blue|pink|trucks|saxophones|objects|clowns,none,NA,Higher Degree,1553706478609,46,female,competitive,English,NA,23,NA,NA,NA,NA,images/23NONE.PNG,55bf948ffdf99b2d6e385a5d,NA,semantic_no-bonus,On the bonus card none of the objects are,NA,Wed Mar 27 2019 16:53:47 GMT+0000 (Greenwich Mean Time),1553705627464,14.18575,23,sentence_completion,NA
6854,NA,4461,27,semantic_bonus|semantic_no-bonus|false|false|contradiction|nonsense,,cars|sofas|blue|pink|objects|clowns,none,NA,Higher Degree,1553706478609,46,female,competitive,English,NA,26,NA,NA,NA,NA,images/26NONE.PNG,55bf948ffdf99b2d6e385a5d,NA,semantic_no-bonus,On the bonus card none of the objects are,NA,Wed Mar 27 2019 16:53:47 GMT+0000 (Greenwich Mean Time),1553705627464,14.18575,24,sentence_completion,NA
6854,NA,5150,27,semantic_bonus|semantic_no-bonus|false|false|contradiction|nonsense,,umbrellas|rockets|green|pink|objects|clowns,all,NA,Higher Degree,1553706478609,46,female,competitive,English,NA,28,NA,NA,NA,NA,images/28ALL.PNG,55bf948ffdf99b2d6e385a5d,NA,semantic_no-bonus,On the bonus card all of the objects are,NA,Wed Mar 27 2019 16:53:47 GMT+0000 (Greenwich Mean Time),1553705627464,14.18575,25,sentence_completion,NA
6854,NA,5334,27,semantic_bonus|semantic_no-bonus|false|false|contradiction|nonsense,,green|pink|mail boxes|light bulbs|objects|clowns,none,NA,Higher Degree,1553706478609,46,female,competitive,English,NA,19,NA,NA,NA,NA,images/19NONE.PNG,55bf948ffdf99b2d6e385a5d,NA,semantic_no-bonus,On the bonus card none of the objects are,NA,Wed Mar 27 2019 16:53:47 GMT+0000 (Greenwich Mean Time),1553705627464,14.18575,26,sentence_completion,NA
6854,NA,4421,27,semantic_bonus|semantic_no-bonus|false|false|contradiction|nonsense,,bottles|bikes|yellow|blue|objects|clowns,all,NA,Higher Degree,1553706478609,46,female,competitive,English,NA,36,NA,NA,NA,NA,images/36ALL.PNG,55bf948ffdf99b2d6e385a5d,NA,semantic_no-bonus,On the bonus card all of the objects are,NA,Wed Mar 27 2019 16:53:47 GMT+0000 (Greenwich Mean Time),1553705627464,14.18575,27,sentence_completion,NA
6854,NA,11201,27,pragmatic_bonus|pragmatic_no-bonus|false|false|tautology|nonsense,,pink|books|hammers|blue|objects|clowns,most,NA,Higher Degree,1553706478609,46,female,competitive,English,NA,11,NA,NA,NA,NA,images/11MOST.PNG,55bf948ffdf99b2d6e385a5d,NA,false,On the bonus card most of the objects are,NA,Wed Mar 27 2019 16:53:47 GMT+0000 (Greenwich Mean Time),1553705627464,14.18575,28,sentence_completion,NA
6854,NA,4889,27,pragmatic_bonus|pragmatic_no-bonus|false|false|tautology|nonsense,,yellow|forks|blue|leaves|objects|clowns,ad_hoc,NA,Higher Degree,1553706478609,46,female,competitive,English,NA,15,NA,NA,NA,NA,images/15HOC.PNG,55bf948ffdf99b2d6e385a5d,NA,pragmatic_no-bonus,On the bonus card the objects in the bottom row are,NA,Wed Mar 27 2019 16:53:47 GMT+0000 (Greenwich Mean Time),1553705627464,14.18575,29,sentence_completion,NA
6854,NA,3337,27,pragmatic_bonus|pragmatic_no-bonus|false|false|tautology|nonsense,,pink|bells|yellow|hourglasses|objects|clowns,ad_hoc,NA,Higher Degree,1553706478609,46,female,competitive,English,NA,18,NA,NA,NA,NA,images/18HOC.PNG,55bf948ffdf99b2d6e385a5d,NA,pragmatic_no-bonus,On the bonus card the objects in the bottom row are,NA,Wed Mar 27 2019 16:53:47 GMT+0000 (Greenwich Mean Time),1553705627464,14.18575,30,sentence_completion,NA
