submission_id,QUD,RT,age,answer_category,comments,completions,condition,correct,education,endTime,experiment_id,gender,glb_condition,languages,min_chars,number,option1,option2,optionLeft,optionRight,picture,prolific_id,question,response,sentence_fragment,sentence_nr,startDate,startTime,timeSpent,trial_number,trial_type,trigger
7422,NA,5447,31,NA,,NA,NA,12,Graduated High School,1554582417878,51,male,competitive,English,0,NA,NA,NA,NA,NA,images/Plate1.png,5c57890153fba80001bd3ba1,Please type the number you see in the picture above into the textbox. Please write 'none' if you do not see anything?,12,NA,NA,Sat Apr 06 2019 15:11:19 GMT-0500 (Central Daylight Time),1554581479761,15.635283333333334,1,color_blindness_test,NA
7422,NA,9391,31,NA,,NA,NA,73,Graduated High School,1554582417878,51,male,competitive,English,0,NA,NA,NA,NA,NA,images/Plate13.png,5c57890153fba80001bd3ba1,Please type the number you see in the picture above into the textbox. Please write 'none' if you do not see anything?,73,NA,NA,Sat Apr 06 2019 15:11:19 GMT-0500 (Central Daylight Time),1554581479761,15.635283333333334,2,color_blindness_test,NA
7422,NA,4871,31,NA,,NA,NA,45,Graduated High School,1554582417878,51,male,competitive,English,0,NA,NA,NA,NA,NA,images/Plate9.png,5c57890153fba80001bd3ba1,Please type the number you see in the picture above into the textbox. Please write 'none' if you do not see anything?,45,NA,NA,Sat Apr 06 2019 15:11:19 GMT-0500 (Central Daylight Time),1554581479761,15.635283333333334,3,color_blindness_test,NA
7422,NA,22480,31,green|red|false,,<strong>some</strong> of the objects are <strong>lamps</strong>|<strong>some</strong> of the objects are <strong>yellow</strong>|<strong>all</strong> of the objects are <strong>clowns</strong>,some,NA,Graduated High School,1554582417878,51,male,competitive,English,NA,08,NA,NA,NA,NA,images/08SOME.PNG,5c57890153fba80001bd3ba1,NA,false,The <strong>green</strong> card is the card where,NA,Sat Apr 06 2019 15:11:19 GMT-0500 (Central Daylight Time),1554581479761,15.635283333333334,1,sentence_completion,NA
7422,NA,9635,31,green|red|false,,<strong>some</strong> of the objects are <strong>beds</strong>|<strong>some</strong> of the objects are <strong>blue</strong>|<strong>all</strong> of the objects are <strong>clowns</strong>,some,NA,Graduated High School,1554582417878,51,male,competitive,English,NA,10,NA,NA,NA,NA,images/10SOME.PNG,5c57890153fba80001bd3ba1,NA,green,The <strong>green</strong> card is the card where,NA,Sat Apr 06 2019 15:11:19 GMT-0500 (Central Daylight Time),1554581479761,15.635283333333334,2,sentence_completion,NA
7422,NA,9011,31,green|red|false,,all of the objects in the <strong>top row</strong> are <strong>blue</strong>|all of the objects in the <strong>top row</strong> are <strong>kites</strong>|<strong>all</strong> of the objects are <strong>clowns</strong>,ad_hoc,NA,Graduated High School,1554582417878,51,male,competitive,English,NA,13,NA,NA,NA,NA,images/13HOC.PNG,5c57890153fba80001bd3ba1,NA,green,The <strong>green</strong> card is the card where,NA,Sat Apr 06 2019 15:11:19 GMT-0500 (Central Daylight Time),1554581479761,15.635283333333334,3,sentence_completion,NA
7422,NA,11299,31,green|red|false,,<strong>all</strong> of the objects are <strong>pink</strong>|<strong>all</strong> of the objects are <strong>green</strong>|<strong>some</strong> of the objects are <strong>clowns</strong>,all,NA,Graduated High School,1554582417878,51,male,competitive,English,NA,31,NA,NA,NA,NA,images/31ALL.PNG,5c57890153fba80001bd3ba1,NA,false,The <strong>green</strong> card is the card where,NA,Sat Apr 06 2019 15:11:19 GMT-0500 (Central Daylight Time),1554581479761,15.635283333333334,4,sentence_completion,NA
7422,NA,7252,31,green|red|false,,<strong>all</strong> of the objects are <strong>drums</strong>|<strong>all</strong> of the objects are <strong>tents</strong>|<strong>some</strong> of the objects are <strong>clowns</strong>,all,NA,Graduated High School,1554582417878,51,male,competitive,English,NA,32,NA,NA,NA,NA,images/32ALL.PNG,5c57890153fba80001bd3ba1,NA,red,The <strong>green</strong> card is the card where,NA,Sat Apr 06 2019 15:11:19 GMT-0500 (Central Daylight Time),1554581479761,15.635283333333334,5,sentence_completion,NA
7422,NA,6971,31,green|red|false,,<strong>none</strong> of the objects are <strong>blue</strong>|<strong>none</strong> of the objects are <strong>pink</strong>|<strong>some</strong> of the objects are <strong>clowns</strong>,none,NA,Graduated High School,1554582417878,51,male,competitive,English,NA,23,NA,NA,NA,NA,images/23NONE.PNG,5c57890153fba80001bd3ba1,NA,red,The <strong>green</strong> card is the card where,NA,Sat Apr 06 2019 15:11:19 GMT-0500 (Central Daylight Time),1554581479761,15.635283333333334,6,sentence_completion,NA
7422,NA,19255,31,green|red|false,,<strong>six</strong> of the objects are <strong>green</strong>|<strong>six</strong> of the objects are <strong>toasters</strong>|<strong>eight</strong> of the objects are <strong>clowns</strong>,number,NA,Graduated High School,1554582417878,51,male,competitive,English,NA,04,NA,NA,NA,NA,images/04NUM.PNG,5c57890153fba80001bd3ba1,NA,red,The <strong>green</strong> card is the card where,NA,Sat Apr 06 2019 15:11:19 GMT-0500 (Central Daylight Time),1554581479761,15.635283333333334,7,sentence_completion,NA
7422,NA,7071,31,green|red|false,,<strong>none</strong> of the objects are <strong>kettles</strong>|<strong>none</strong> of the objects are <strong>bananas</strong>|<strong>some</strong> of the objects are <strong>clowns</strong>,none,NA,Graduated High School,1554582417878,51,male,competitive,English,NA,22,NA,NA,NA,NA,images/22NONE.PNG,5c57890153fba80001bd3ba1,NA,red,The <strong>green</strong> card is the card where,NA,Sat Apr 06 2019 15:11:19 GMT-0500 (Central Daylight Time),1554581479761,15.635283333333334,8,sentence_completion,NA
7422,NA,16320,31,green|red|false,,<strong>all</strong> of the objects are <strong>trumpets</strong>|<strong>all</strong> of the objects are <strong>carrots</strong>|<strong>some</strong> of the objects are <strong>clowns</strong>,all,NA,Graduated High School,1554582417878,51,male,competitive,English,NA,34,NA,NA,NA,NA,images/34ALL.PNG,5c57890153fba80001bd3ba1,NA,green,The <strong>green</strong> card is the card where,NA,Sat Apr 06 2019 15:11:19 GMT-0500 (Central Daylight Time),1554581479761,15.635283333333334,9,sentence_completion,NA
7422,NA,13959,31,green|red|false,,<strong>five</strong> of the objects are <strong>blue</strong>|<strong>five</strong> of the objects are <strong>spoons</strong>|<strong>seven</strong> of the objects are <strong>clowns</strong>,number,NA,Graduated High School,1554582417878,51,male,competitive,English,NA,03,NA,NA,NA,NA,images/03NUM.PNG,5c57890153fba80001bd3ba1,NA,false,The <strong>green</strong> card is the card where,NA,Sat Apr 06 2019 15:11:19 GMT-0500 (Central Daylight Time),1554581479761,15.635283333333334,10,sentence_completion,NA
7422,NA,5694,31,green|red|false,,<strong>none</strong> of the objects are <strong>pans</strong>|<strong>none</strong> of the objects are <strong>jars</strong>|<strong>some</strong> of the objects are <strong>clowns</strong>,none,NA,Graduated High School,1554582417878,51,male,competitive,English,NA,24,NA,NA,NA,NA,images/24NONE.PNG,5c57890153fba80001bd3ba1,NA,red,The <strong>green</strong> card is the card where,NA,Sat Apr 06 2019 15:11:19 GMT-0500 (Central Daylight Time),1554581479761,15.635283333333334,11,sentence_completion,NA
7422,NA,7855,31,green|red|false,,<strong>five</strong> of the objects are <strong>pumpkins</strong>|<strong>five</strong> of the objects are <strong>blue</strong>|<strong>seven</strong> of the objects are <strong>clowns</strong>,number,NA,Graduated High School,1554582417878,51,male,competitive,English,NA,01,NA,NA,NA,NA,images/01NUM.PNG,5c57890153fba80001bd3ba1,NA,green,The <strong>green</strong> card is the card where,NA,Sat Apr 06 2019 15:11:19 GMT-0500 (Central Daylight Time),1554581479761,15.635283333333334,12,sentence_completion,NA
7422,NA,5799,31,green|red|false,,<strong>all</strong> of the objects are <strong>blue</strong>|<strong>all</strong> of the objects are <strong>pink</strong>|<strong>some</strong> of the objects are <strong>clowns</strong>,all,NA,Graduated High School,1554582417878,51,male,competitive,English,NA,35,NA,NA,NA,NA,images/35ALL.PNG,5c57890153fba80001bd3ba1,NA,red,The <strong>green</strong> card is the card where,NA,Sat Apr 06 2019 15:11:19 GMT-0500 (Central Daylight Time),1554581479761,15.635283333333334,13,sentence_completion,NA
7422,NA,5327,31,green|red|false,,<strong>none</strong> of the objects are <strong>green</strong>|<strong>none</strong> of the objects are <strong>pink</strong>|<strong>some</strong> of the objects are <strong>clowns</strong>,none,NA,Graduated High School,1554582417878,51,male,competitive,English,NA,19,NA,NA,NA,NA,images/19NONE.PNG,5c57890153fba80001bd3ba1,NA,red,The <strong>green</strong> card is the card where,NA,Sat Apr 06 2019 15:11:19 GMT-0500 (Central Daylight Time),1554581479761,15.635283333333334,14,sentence_completion,NA
7422,NA,6479,31,green|red|false,,<strong>none</strong> of the objects are <strong>blue</strong>|<strong>none</strong> of the objects are <strong>yellow</strong>|<strong>some</strong> of the objects are <strong>clowns</strong>,none,NA,Graduated High School,1554582417878,51,male,competitive,English,NA,27,NA,NA,NA,NA,images/27NONE.PNG,5c57890153fba80001bd3ba1,NA,green,The <strong>green</strong> card is the card where,NA,Sat Apr 06 2019 15:11:19 GMT-0500 (Central Daylight Time),1554581479761,15.635283333333334,15,sentence_completion,NA
7422,NA,9791,31,green|red|false,,all of the objects in the <strong>bottom row</strong> are <strong>pink</strong>|all of the objects in the <strong>bottom row</strong> are <strong>bells</strong>|<strong>all</strong> of the objects are <strong>clowns</strong>,ad_hoc,NA,Graduated High School,1554582417878,51,male,competitive,English,NA,18,NA,NA,NA,NA,images/18HOC.PNG,5c57890153fba80001bd3ba1,NA,red,The <strong>green</strong> card is the card where,NA,Sat Apr 06 2019 15:11:19 GMT-0500 (Central Daylight Time),1554581479761,15.635283333333334,16,sentence_completion,NA
7422,NA,4199,31,green|red|false,,<strong>none</strong> of the objects are <strong>blue</strong>|<strong>none</strong> of the objects are <strong>green</strong>|<strong>some</strong> of the objects are <strong>clowns</strong>,none,NA,Graduated High School,1554582417878,51,male,competitive,English,NA,25,NA,NA,NA,NA,images/25NONE.PNG,5c57890153fba80001bd3ba1,NA,red,The <strong>green</strong> card is the card where,NA,Sat Apr 06 2019 15:11:19 GMT-0500 (Central Daylight Time),1554581479761,15.635283333333334,17,sentence_completion,NA
7422,NA,11991,31,green|red|false,,all of the objects in the <strong>middle row</strong> are <strong>green</strong>|all of the objects in the <strong>middle row</strong> are <strong>apples</strong>|<strong>all</strong> of the objects are <strong>clowns</strong>,ad_hoc,NA,Graduated High School,1554582417878,51,male,competitive,English,NA,17,NA,NA,NA,NA,images/17HOC.PNG,5c57890153fba80001bd3ba1,NA,false,The <strong>green</strong> card is the card where,NA,Sat Apr 06 2019 15:11:19 GMT-0500 (Central Daylight Time),1554581479761,15.635283333333334,18,sentence_completion,NA
7422,NA,3551,31,green|red|false,,<strong>some</strong> of the objects are <strong>yellow</strong>|<strong>some</strong> of the objects are <strong>flags</strong>|<strong>all</strong> of the objects are <strong>clowns</strong>,some,NA,Graduated High School,1554582417878,51,male,competitive,English,NA,09,NA,NA,NA,NA,images/09SOME.PNG,5c57890153fba80001bd3ba1,NA,false,The <strong>green</strong> card is the card where,NA,Sat Apr 06 2019 15:11:19 GMT-0500 (Central Daylight Time),1554581479761,15.635283333333334,19,sentence_completion,NA
7422,NA,7247,31,green|red|false,,<strong>none</strong> of the objects are <strong>cakes</strong>|<strong>none</strong> of the objects are <strong>teapots</strong>|<strong>some</strong> of the objects are <strong>clowns</strong>,none,NA,Graduated High School,1554582417878,51,male,competitive,English,NA,20,NA,NA,NA,NA,images/20NONE.PNG,5c57890153fba80001bd3ba1,NA,red,The <strong>green</strong> card is the card where,NA,Sat Apr 06 2019 15:11:19 GMT-0500 (Central Daylight Time),1554581479761,15.635283333333334,20,sentence_completion,NA
7422,NA,8631,31,green|red|false,,<strong>some</strong> of the objects are <strong>pink</strong>|<strong>some</strong> of the objects are <strong>keys</strong>|<strong>all</strong> of the objects are <strong>clowns</strong>,some,NA,Graduated High School,1554582417878,51,male,competitive,English,NA,07,NA,NA,NA,NA,images/07SOME.PNG,5c57890153fba80001bd3ba1,NA,green,The <strong>green</strong> card is the card where,NA,Sat Apr 06 2019 15:11:19 GMT-0500 (Central Daylight Time),1554581479761,15.635283333333334,21,sentence_completion,NA
7422,NA,7031,31,green|red|false,,all of the objects in the <strong>top row</strong> are <strong>vases</strong>|all of the objects in the <strong>top row</strong> are <strong>pink</strong>|<strong>all</strong> of the objects are <strong>clowns</strong>,ad_hoc,NA,Graduated High School,1554582417878,51,male,competitive,English,NA,16,NA,NA,NA,NA,images/16HOC.PNG,5c57890153fba80001bd3ba1,NA,green,The <strong>green</strong> card is the card where,NA,Sat Apr 06 2019 15:11:19 GMT-0500 (Central Daylight Time),1554581479761,15.635283333333334,22,sentence_completion,NA
7422,NA,6431,31,green|red|false,,<strong>all</strong> of the objects are <strong>bottles</strong>|<strong>all</strong> of the objects are <strong>bikes</strong>|<strong>some</strong> of the objects are <strong>clowns</strong>,all,NA,Graduated High School,1554582417878,51,male,competitive,English,NA,36,NA,NA,NA,NA,images/36ALL.PNG,5c57890153fba80001bd3ba1,NA,false,The <strong>green</strong> card is the card where,NA,Sat Apr 06 2019 15:11:19 GMT-0500 (Central Daylight Time),1554581479761,15.635283333333334,23,sentence_completion,NA
7422,NA,5191,31,green|red|false,,<strong>none</strong> of the objects are <strong>cars</strong>|<strong>none</strong> of the objects are <strong>sofas</strong>|<strong>some</strong> of the objects are <strong>clowns</strong>,none,NA,Graduated High School,1554582417878,51,male,competitive,English,NA,26,NA,NA,NA,NA,images/26NONE.PNG,5c57890153fba80001bd3ba1,NA,green,The <strong>green</strong> card is the card where,NA,Sat Apr 06 2019 15:11:19 GMT-0500 (Central Daylight Time),1554581479761,15.635283333333334,24,sentence_completion,NA
7422,NA,6959,31,green|red|false,,<strong>some</strong> of the objects are <strong>flowers</strong>|<strong>some</strong> of the objects are <strong>blue</strong>|<strong>all</strong> of the objects are <strong>clowns</strong>,some,NA,Graduated High School,1554582417878,51,male,competitive,English,NA,12,NA,NA,NA,NA,images/12SOME.PNG,5c57890153fba80001bd3ba1,NA,red,The <strong>green</strong> card is the card where,NA,Sat Apr 06 2019 15:11:19 GMT-0500 (Central Daylight Time),1554581479761,15.635283333333334,25,sentence_completion,NA
7422,NA,8311,31,green|red|false,,all of the objects in the <strong>bottom row</strong> are <strong>yellow</strong>|all of the objects in the <strong>bottom row</strong> are <strong>forks</strong>|<strong>all</strong> of the objects are <strong>clowns</strong>,ad_hoc,NA,Graduated High School,1554582417878,51,male,competitive,English,NA,15,NA,NA,NA,NA,images/15HOC.PNG,5c57890153fba80001bd3ba1,NA,red,The <strong>green</strong> card is the card where,NA,Sat Apr 06 2019 15:11:19 GMT-0500 (Central Daylight Time),1554581479761,15.635283333333334,26,sentence_completion,NA
7422,NA,3535,31,green|red|false,,all of the objects in the <strong>middle row</strong> are <strong>crowns</strong>|all of the objects in the <strong>middle row</strong> are <strong>blue</strong>|<strong>all</strong> of the objects are <strong>clowns</strong>,ad_hoc,NA,Graduated High School,1554582417878,51,male,competitive,English,NA,14,NA,NA,NA,NA,images/14HOC.PNG,5c57890153fba80001bd3ba1,NA,green,The <strong>green</strong> card is the card where,NA,Sat Apr 06 2019 15:11:19 GMT-0500 (Central Daylight Time),1554581479761,15.635283333333334,27,sentence_completion,NA
7422,NA,5159,31,green|red|false,,<strong>six</strong> of the objects are <strong>bathtubs</strong>|<strong>six</strong> of the objects are <strong>pink</strong>|<strong>eight</strong> of the objects are <strong>clowns</strong>,number,NA,Graduated High School,1554582417878,51,male,competitive,English,NA,06,NA,NA,NA,NA,images/06NUM.PNG,5c57890153fba80001bd3ba1,NA,false,The <strong>green</strong> card is the card where,NA,Sat Apr 06 2019 15:11:19 GMT-0500 (Central Daylight Time),1554581479761,15.635283333333334,28,sentence_completion,NA
7422,NA,6311,31,green|red|false,,<strong>some</strong> of the objects are <strong>pink</strong>|<strong>some</strong> of the objects are <strong>books</strong>|<strong>all</strong> of the objects are <strong>clowns</strong>,some,NA,Graduated High School,1554582417878,51,male,competitive,English,NA,11,NA,NA,NA,NA,images/11SOME.PNG,5c57890153fba80001bd3ba1,NA,false,The <strong>green</strong> card is the card where,NA,Sat Apr 06 2019 15:11:19 GMT-0500 (Central Daylight Time),1554581479761,15.635283333333334,29,sentence_completion,NA
7422,NA,6839,31,green|red|false,,<strong>none</strong> of the objects are <strong>pink</strong>|<strong>none</strong> of the objects are <strong>yellow</strong>|<strong>some</strong> of the objects are <strong>clowns</strong>,none,NA,Graduated High School,1554582417878,51,male,competitive,English,NA,21,NA,NA,NA,NA,images/21NONE.PNG,5c57890153fba80001bd3ba1,NA,false,The <strong>green</strong> card is the card where,NA,Sat Apr 06 2019 15:11:19 GMT-0500 (Central Daylight Time),1554581479761,15.635283333333334,30,sentence_completion,NA
7422,NA,3687,31,green|red|false,,<strong>all</strong> of the objects are <strong>green</strong>|<strong>all</strong> of the objects are <strong>yellow</strong>|<strong>some</strong> of the objects are <strong>clowns</strong>,all,NA,Graduated High School,1554582417878,51,male,competitive,English,NA,29,NA,NA,NA,NA,images/29ALL.PNG,5c57890153fba80001bd3ba1,NA,red,The <strong>green</strong> card is the card where,NA,Sat Apr 06 2019 15:11:19 GMT-0500 (Central Daylight Time),1554581479761,15.635283333333334,31,sentence_completion,NA
7422,NA,5399,31,green|red|false,,<strong>all</strong> of the objects are <strong>yellow</strong>|<strong>all</strong> of the objects are <strong>pink</strong>|<strong>some</strong> of the objects are <strong>clowns</strong>,all,NA,Graduated High School,1554582417878,51,male,competitive,English,NA,33,NA,NA,NA,NA,images/33ALL.PNG,5c57890153fba80001bd3ba1,NA,false,The <strong>green</strong> card is the card where,NA,Sat Apr 06 2019 15:11:19 GMT-0500 (Central Daylight Time),1554581479761,15.635283333333334,32,sentence_completion,NA
7422,NA,4903,31,green|red|false,,<strong>all</strong> of the objects are <strong>umbrellas</strong>|<strong>all</strong> of the objects are <strong>rockets</strong>|<strong>some</strong> of the objects are <strong>clowns</strong>,all,NA,Graduated High School,1554582417878,51,male,competitive,English,NA,28,NA,NA,NA,NA,images/28ALL.PNG,5c57890153fba80001bd3ba1,NA,red,The <strong>green</strong> card is the card where,NA,Sat Apr 06 2019 15:11:19 GMT-0500 (Central Daylight Time),1554581479761,15.635283333333334,33,sentence_completion,NA
7422,NA,14015,31,green|red|false,,<strong>five</strong> of the objects are <strong>pineapples</strong>|<strong>five</strong> of the objects are <strong>pink</strong>|<strong>seven</strong> of the objects are <strong>clowns</strong>,number,NA,Graduated High School,1554582417878,51,male,competitive,English,NA,02,NA,NA,NA,NA,images/02NUM.PNG,5c57890153fba80001bd3ba1,NA,false,The <strong>green</strong> card is the card where,NA,Sat Apr 06 2019 15:11:19 GMT-0500 (Central Daylight Time),1554581479761,15.635283333333334,34,sentence_completion,NA
7422,NA,4271,31,green|red|false,,<strong>all</strong> of the objects are <strong>shoes</strong>|<strong>all</strong> of the objects are <strong>trophies</strong>|<strong>some</strong> of the objects are <strong>clowns</strong>,all,NA,Graduated High School,1554582417878,51,male,competitive,English,NA,30,NA,NA,NA,NA,images/30ALL.PNG,5c57890153fba80001bd3ba1,NA,red,The <strong>green</strong> card is the card where,NA,Sat Apr 06 2019 15:11:19 GMT-0500 (Central Daylight Time),1554581479761,15.635283333333334,35,sentence_completion,NA
7422,NA,6559,31,green|red|false,,<strong>six</strong> of the objects are <strong>green</strong>|<strong>six</strong> of the objects are <strong>pears</strong>|<strong>eight</strong> of the objects are <strong>clowns</strong>,number,NA,Graduated High School,1554582417878,51,male,competitive,English,NA,05,NA,NA,NA,NA,images/05NUM.PNG,5c57890153fba80001bd3ba1,NA,red,The <strong>green</strong> card is the card where,NA,Sat Apr 06 2019 15:11:19 GMT-0500 (Central Daylight Time),1554581479761,15.635283333333334,36,sentence_completion,NA
7422,NA,6279,31,NA,,NA,NA,NA,Graduated High School,1554582417878,51,male,competitive,English,NA,NA,NA,NA,0%,100%,NA,5c57890153fba80001bd3ba1,NA,33,NA,NA,Sat Apr 06 2019 15:11:19 GMT-0500 (Central Daylight Time),1554581479761,15.635283333333334,1,performance_rating,NA
7422,,8791,31,NA,,NA,true,NA,Graduated High School,1554582417878,51,male,competitive,English,NA,NA,true,false,NA,NA,NA,5c57890153fba80001bd3ba1,Most days in a year are working days.,true,NA,3,Sat Apr 06 2019 15:11:19 GMT-0500 (Central Daylight Time),1554581479761,15.635283333333334,1,truth_value_judgements,most
7422,,6023,31,NA,,NA,true,NA,Graduated High School,1554582417878,51,male,competitive,English,NA,NA,true,false,NA,NA,NA,5c57890153fba80001bd3ba1,Some dresses have pockets.,false,NA,2,Sat Apr 06 2019 15:11:19 GMT-0500 (Central Daylight Time),1554581479761,15.635283333333334,2,truth_value_judgements,some
7422,,5511,31,NA,,NA,implicature,NA,Graduated High School,1554582417878,51,male,competitive,English,NA,NA,true,false,NA,NA,NA,5c57890153fba80001bd3ba1,Some owls are birds.,true,NA,3,Sat Apr 06 2019 15:11:19 GMT-0500 (Central Daylight Time),1554581479761,15.635283333333334,3,truth_value_judgements,some
7422,,5895,31,NA,,NA,true,NA,Graduated High School,1554582417878,51,male,competitive,English,NA,NA,true,false,NA,NA,NA,5c57890153fba80001bd3ba1,A normal motorcycle has two wheels.,true,NA,1,Sat Apr 06 2019 15:11:19 GMT-0500 (Central Daylight Time),1554581479761,15.635283333333334,4,truth_value_judgements,number
7422,,5463,31,NA,,NA,true,NA,Graduated High School,1554582417878,51,male,competitive,English,NA,NA,true,false,NA,NA,NA,5c57890153fba80001bd3ba1,Some children are blond.,true,NA,4,Sat Apr 06 2019 15:11:19 GMT-0500 (Central Daylight Time),1554581479761,15.635283333333334,5,truth_value_judgements,some
7422,,5592,31,NA,,NA,implicature,NA,Graduated High School,1554582417878,51,male,competitive,English,NA,NA,true,false,NA,NA,NA,5c57890153fba80001bd3ba1,Some ants are insects.,true,NA,4,Sat Apr 06 2019 15:11:19 GMT-0500 (Central Daylight Time),1554581479761,15.635283333333334,6,truth_value_judgements,some
7422,,5655,31,NA,,NA,implicature,NA,Graduated High School,1554582417878,51,male,competitive,English,NA,NA,true,false,NA,NA,NA,5c57890153fba80001bd3ba1,A human hand has two fingers.,false,NA,2,Sat Apr 06 2019 15:11:19 GMT-0500 (Central Daylight Time),1554581479761,15.635283333333334,7,truth_value_judgements,number
7422,,6744,31,NA,,NA,bizarre,NA,Graduated High School,1554582417878,51,male,competitive,English,NA,NA,true,false,NA,NA,NA,5c57890153fba80001bd3ba1,Most tigers are literate.,false,NA,5,Sat Apr 06 2019 15:11:19 GMT-0500 (Central Daylight Time),1554581479761,15.635283333333334,8,truth_value_judgements,most
7422,,5728,31,NA,,NA,implicature,NA,Graduated High School,1554582417878,51,male,competitive,English,NA,NA,true,false,NA,NA,NA,5c57890153fba80001bd3ba1,The universe contains three planets.,false,NA,3,Sat Apr 06 2019 15:11:19 GMT-0500 (Central Daylight Time),1554581479761,15.635283333333334,9,truth_value_judgements,number
7422,,5664,31,NA,,NA,implicature,NA,Graduated High School,1554582417878,51,male,competitive,English,NA,NA,true,false,NA,NA,NA,5c57890153fba80001bd3ba1,Most snakes are reptiles.,true,NA,3,Sat Apr 06 2019 15:11:19 GMT-0500 (Central Daylight Time),1554581479761,15.635283333333334,10,truth_value_judgements,most
7422,,5400,31,NA,,NA,true,NA,Graduated High School,1554582417878,51,male,competitive,English,NA,NA,true,false,NA,NA,NA,5c57890153fba80001bd3ba1,Some tools are made of wood..,true,NA,3,Sat Apr 06 2019 15:11:19 GMT-0500 (Central Daylight Time),1554581479761,15.635283333333334,11,truth_value_judgements,some
7422,,5615,31,NA,,NA,bizarre,NA,Graduated High School,1554582417878,51,male,competitive,English,NA,NA,true,false,NA,NA,NA,5c57890153fba80001bd3ba1,Some fish are made of leaves.,false,NA,1,Sat Apr 06 2019 15:11:19 GMT-0500 (Central Daylight Time),1554581479761,15.635283333333334,12,truth_value_judgements,some
7422,,6647,31,NA,,NA,true,NA,Graduated High School,1554582417878,51,male,competitive,English,NA,NA,true,false,NA,NA,NA,5c57890153fba80001bd3ba1,Some flowers are yellow.,true,NA,1,Sat Apr 06 2019 15:11:19 GMT-0500 (Central Daylight Time),1554581479761,15.635283333333334,13,truth_value_judgements,some
7422,,7783,31,NA,,NA,bizarre,NA,Graduated High School,1554582417878,51,male,competitive,English,NA,NA,true,false,NA,NA,NA,5c57890153fba80001bd3ba1,All garages sing.,false,NA,4,Sat Apr 06 2019 15:11:19 GMT-0500 (Central Daylight Time),1554581479761,15.635283333333334,14,truth_value_judgements,all
7422,,5623,31,NA,,NA,implicature,NA,Graduated High School,1554582417878,51,male,competitive,English,NA,NA,true,false,NA,NA,NA,5c57890153fba80001bd3ba1,Most elephants are mammals.,true,NA,5,Sat Apr 06 2019 15:11:19 GMT-0500 (Central Daylight Time),1554581479761,15.635283333333334,15,truth_value_judgements,most
7422,,5615,31,NA,,NA,bizarre,NA,Graduated High School,1554582417878,51,male,competitive,English,NA,NA,true,false,NA,NA,NA,5c57890153fba80001bd3ba1,The earth owns seven books.,false,NA,5,Sat Apr 06 2019 15:11:19 GMT-0500 (Central Daylight Time),1554581479761,15.635283333333334,16,truth_value_judgements,number
7422,,5392,31,NA,,NA,bizarre,NA,Graduated High School,1554582417878,51,male,competitive,English,NA,NA,true,false,NA,NA,NA,5c57890153fba80001bd3ba1,Most elephants have glasses.,false,NA,1,Sat Apr 06 2019 15:11:19 GMT-0500 (Central Daylight Time),1554581479761,15.635283333333334,17,truth_value_judgements,most
7422,,5408,31,NA,,NA,bizarre,NA,Graduated High School,1554582417878,51,male,competitive,English,NA,NA,true,false,NA,NA,NA,5c57890153fba80001bd3ba1,A week consists of five people.,false,NA,4,Sat Apr 06 2019 15:11:19 GMT-0500 (Central Daylight Time),1554581479761,15.635283333333334,18,truth_value_judgements,number
7422,,5776,31,NA,,NA,true,NA,Graduated High School,1554582417878,51,male,competitive,English,NA,NA,true,false,NA,NA,NA,5c57890153fba80001bd3ba1,All hammers have a handle.,true,NA,2,Sat Apr 06 2019 15:11:19 GMT-0500 (Central Daylight Time),1554581479761,15.635283333333334,19,truth_value_judgements,all
7422,,5479,31,NA,,NA,true,NA,Graduated High School,1554582417878,51,male,competitive,English,NA,NA,true,false,NA,NA,NA,5c57890153fba80001bd3ba1,All dogs are mammals.,true,NA,9,Sat Apr 06 2019 15:11:19 GMT-0500 (Central Daylight Time),1554581479761,15.635283333333334,20,truth_value_judgements,all
7422,,5368,31,NA,,NA,true,NA,Graduated High School,1554582417878,51,male,competitive,English,NA,NA,true,false,NA,NA,NA,5c57890153fba80001bd3ba1,All robins have wings.,true,NA,3,Sat Apr 06 2019 15:11:19 GMT-0500 (Central Daylight Time),1554581479761,15.635283333333334,21,truth_value_judgements,all
7422,,5503,31,NA,,NA,bizarre,NA,Graduated High School,1554582417878,51,male,competitive,English,NA,NA,true,false,NA,NA,NA,5c57890153fba80001bd3ba1,All chairs tell time.,false,NA,3,Sat Apr 06 2019 15:11:19 GMT-0500 (Central Daylight Time),1554581479761,15.635283333333334,22,truth_value_judgements,all
7422,,6007,31,NA,,NA,implicature,NA,Graduated High School,1554582417878,51,male,competitive,English,NA,NA,true,false,NA,NA,NA,5c57890153fba80001bd3ba1,Some cats are mammals.,true,NA,5,Sat Apr 06 2019 15:11:19 GMT-0500 (Central Daylight Time),1554581479761,15.635283333333334,23,truth_value_judgements,some
7422,,5439,31,NA,,NA,implicature,NA,Graduated High School,1554582417878,51,male,competitive,English,NA,NA,true,false,NA,NA,NA,5c57890153fba80001bd3ba1,Some trouts are fish.,true,NA,1,Sat Apr 06 2019 15:11:19 GMT-0500 (Central Daylight Time),1554581479761,15.635283333333334,24,truth_value_judgements,some
7422,,6624,31,NA,,NA,true,NA,Graduated High School,1554582417878,51,male,competitive,English,NA,NA,true,false,NA,NA,NA,5c57890153fba80001bd3ba1,Most people know more than one language.,false,NA,4,Sat Apr 06 2019 15:11:19 GMT-0500 (Central Daylight Time),1554581479761,15.635283333333334,25,truth_value_judgements,most
7422,,5527,31,NA,,NA,bizarre,NA,Graduated High School,1554582417878,51,male,competitive,English,NA,NA,true,false,NA,NA,NA,5c57890153fba80001bd3ba1,Most chairs are hungry.,false,NA,2,Sat Apr 06 2019 15:11:19 GMT-0500 (Central Daylight Time),1554581479761,15.635283333333334,26,truth_value_judgements,most
7422,,5599,31,NA,,NA,true,NA,Graduated High School,1554582417878,51,male,competitive,English,NA,NA,true,false,NA,NA,NA,5c57890153fba80001bd3ba1,Most people know their parents.,true,NA,1,Sat Apr 06 2019 15:11:19 GMT-0500 (Central Daylight Time),1554581479761,15.635283333333334,27,truth_value_judgements,most
7422,,5488,31,NA,,NA,bizarre,NA,Graduated High School,1554582417878,51,male,competitive,English,NA,NA,true,false,NA,NA,NA,5c57890153fba80001bd3ba1,Most sofas are friendly.,true,NA,4,Sat Apr 06 2019 15:11:19 GMT-0500 (Central Daylight Time),1554581479761,15.635283333333334,28,truth_value_judgements,most
7422,,5600,31,NA,,NA,implicature,NA,Graduated High School,1554582417878,51,male,competitive,English,NA,NA,true,false,NA,NA,NA,5c57890153fba80001bd3ba1,Monkeys have three bones.,false,NA,5,Sat Apr 06 2019 15:11:19 GMT-0500 (Central Daylight Time),1554581479761,15.635283333333334,29,truth_value_judgements,number
7422,,5455,31,NA,,NA,true,NA,Graduated High School,1554582417878,51,male,competitive,English,NA,NA,true,false,NA,NA,NA,5c57890153fba80001bd3ba1,Most birds can fly.,true,NA,2,Sat Apr 06 2019 15:11:19 GMT-0500 (Central Daylight Time),1554581479761,15.635283333333334,30,truth_value_judgements,most
7422,,5496,31,NA,,NA,bizarre,NA,Graduated High School,1554582417878,51,male,competitive,English,NA,NA,true,false,NA,NA,NA,5c57890153fba80001bd3ba1,Some children are made of feathers.,false,NA,5,Sat Apr 06 2019 15:11:19 GMT-0500 (Central Daylight Time),1554581479761,15.635283333333334,31,truth_value_judgements,some
7422,,5423,31,NA,,NA,bizarre,NA,Graduated High School,1554582417878,51,male,competitive,English,NA,NA,true,false,NA,NA,NA,5c57890153fba80001bd3ba1,All birds have telephones.,false,NA,1,Sat Apr 06 2019 15:11:19 GMT-0500 (Central Daylight Time),1554581479761,15.635283333333334,32,truth_value_judgements,all
7422,,5511,31,NA,,NA,bizarre,NA,Graduated High School,1554582417878,51,male,competitive,English,NA,NA,true,false,NA,NA,NA,5c57890153fba80001bd3ba1,Some stores are made of bubbles.,false,NA,4,Sat Apr 06 2019 15:11:19 GMT-0500 (Central Daylight Time),1554581479761,15.635283333333334,33,truth_value_judgements,some
7422,,5455,31,NA,,NA,implicature,NA,Graduated High School,1554582417878,51,male,competitive,English,NA,NA,true,false,NA,NA,NA,5c57890153fba80001bd3ba1,Most sharks are fish.,false,NA,1,Sat Apr 06 2019 15:11:19 GMT-0500 (Central Daylight Time),1554581479761,15.635283333333334,34,truth_value_judgements,most
7422,,5455,31,NA,,NA,bizarre,NA,Graduated High School,1554582417878,51,male,competitive,English,NA,NA,true,false,NA,NA,NA,5c57890153fba80001bd3ba1,Forests last three nights.,false,NA,3,Sat Apr 06 2019 15:11:19 GMT-0500 (Central Daylight Time),1554581479761,15.635283333333334,35,truth_value_judgements,number
7422,,5495,31,NA,,NA,true,NA,Graduated High School,1554582417878,51,male,competitive,English,NA,NA,true,false,NA,NA,NA,5c57890153fba80001bd3ba1,All books have pages.,true,NA,1,Sat Apr 06 2019 15:11:19 GMT-0500 (Central Daylight Time),1554581479761,15.635283333333334,36,truth_value_judgements,all
7422,,6135,31,NA,,NA,true,NA,Graduated High School,1554582417878,51,male,competitive,English,NA,NA,true,false,NA,NA,NA,5c57890153fba80001bd3ba1,Cats have four legs.,true,NA,4,Sat Apr 06 2019 15:11:19 GMT-0500 (Central Daylight Time),1554581479761,15.635283333333334,37,truth_value_judgements,number
7422,,5455,31,NA,,NA,implicature,NA,Graduated High School,1554582417878,51,male,competitive,English,NA,NA,true,false,NA,NA,NA,5c57890153fba80001bd3ba1,Most pigeons are birds.,true,NA,4,Sat Apr 06 2019 15:11:19 GMT-0500 (Central Daylight Time),1554581479761,15.635283333333334,38,truth_value_judgements,most
7422,,5424,31,NA,,NA,true,NA,Graduated High School,1554582417878,51,male,competitive,English,NA,NA,true,false,NA,NA,NA,5c57890153fba80001bd3ba1,Humans have two eyes.,true,NA,5,Sat Apr 06 2019 15:11:19 GMT-0500 (Central Daylight Time),1554581479761,15.635283333333334,39,truth_value_judgements,number
7422,,5568,31,NA,,NA,bizarre,NA,Graduated High School,1554582417878,51,male,competitive,English,NA,NA,true,false,NA,NA,NA,5c57890153fba80001bd3ba1,All couches have windows.,false,NA,5,Sat Apr 06 2019 15:11:19 GMT-0500 (Central Daylight Time),1554581479761,15.635283333333334,40,truth_value_judgements,all
7422,,5488,31,NA,,NA,implicature,NA,Graduated High School,1554582417878,51,male,competitive,English,NA,NA,true,false,NA,NA,NA,5c57890153fba80001bd3ba1,A year has 245 days.,false,NA,4,Sat Apr 06 2019 15:11:19 GMT-0500 (Central Daylight Time),1554581479761,15.635283333333334,41,truth_value_judgements,number
7422,,5647,31,NA,,NA,true,NA,Graduated High School,1554582417878,51,male,competitive,English,NA,NA,true,false,NA,NA,NA,5c57890153fba80001bd3ba1,Some drinks are made from chocolate.,true,NA,5,Sat Apr 06 2019 15:11:19 GMT-0500 (Central Daylight Time),1554581479761,15.635283333333334,42,truth_value_judgements,some
7422,,6360,31,NA,,NA,true,NA,Graduated High School,1554582417878,51,male,competitive,English,NA,NA,true,false,NA,NA,NA,5c57890153fba80001bd3ba1,Most horses are tame.,true,NA,5,Sat Apr 06 2019 15:11:19 GMT-0500 (Central Daylight Time),1554581479761,15.635283333333334,43,truth_value_judgements,most
7422,,5439,31,NA,,NA,bizarre,NA,Graduated High School,1554582417878,51,male,competitive,English,NA,NA,true,false,NA,NA,NA,5c57890153fba80001bd3ba1,Guitars have four legs.,false,NA,2,Sat Apr 06 2019 15:11:19 GMT-0500 (Central Daylight Time),1554581479761,15.635283333333334,44,truth_value_judgements,number
7422,,5455,31,NA,,NA,implicature,NA,Graduated High School,1554582417878,51,male,competitive,English,NA,NA,true,false,NA,NA,NA,5c57890153fba80001bd3ba1,Most horses are mammals.,true,NA,2,Sat Apr 06 2019 15:11:19 GMT-0500 (Central Daylight Time),1554581479761,15.635283333333334,45,truth_value_judgements,most
7422,,5551,31,NA,,NA,bizarre,NA,Graduated High School,1554582417878,51,male,competitive,English,NA,NA,true,false,NA,NA,NA,5c57890153fba80001bd3ba1,Most motorcycles like music.,false,NA,3,Sat Apr 06 2019 15:11:19 GMT-0500 (Central Daylight Time),1554581479761,15.635283333333334,46,truth_value_judgements,most
7422,,6144,31,NA,,NA,bizarre,NA,Graduated High School,1554582417878,51,male,competitive,English,NA,NA,true,false,NA,NA,NA,5c57890153fba80001bd3ba1,All crayons have noses.,false,NA,2,Sat Apr 06 2019 15:11:19 GMT-0500 (Central Daylight Time),1554581479761,15.635283333333334,47,truth_value_judgements,all
7422,,5431,31,NA,,NA,bizarre,NA,Graduated High School,1554582417878,51,male,competitive,English,NA,NA,true,false,NA,NA,NA,5c57890153fba80001bd3ba1,Some books are good to eat.,false,NA,3,Sat Apr 06 2019 15:11:19 GMT-0500 (Central Daylight Time),1554581479761,15.635283333333334,48,truth_value_judgements,some
7422,,5503,31,NA,,NA,bizarre,NA,Graduated High School,1554582417878,51,male,competitive,English,NA,NA,true,false,NA,NA,NA,5c57890153fba80001bd3ba1,The moon has two ears.,false,NA,1,Sat Apr 06 2019 15:11:19 GMT-0500 (Central Daylight Time),1554581479761,15.635283333333334,49,truth_value_judgements,number
7422,,5832,31,NA,,NA,bizarre,NA,Graduated High School,1554582417878,51,male,competitive,English,NA,NA,true,false,NA,NA,NA,5c57890153fba80001bd3ba1,Some fruits have computers.,false,NA,2,Sat Apr 06 2019 15:11:19 GMT-0500 (Central Daylight Time),1554581479761,15.635283333333334,50,truth_value_judgements,some
7422,,6296,31,NA,,NA,true,NA,Graduated High School,1554582417878,51,male,competitive,English,NA,NA,true,false,NA,NA,NA,5c57890153fba80001bd3ba1,All refrigerators have doors.,true,NA,5,Sat Apr 06 2019 15:11:19 GMT-0500 (Central Daylight Time),1554581479761,15.635283333333334,51,truth_value_judgements,all
7422,,5584,31,NA,,NA,implicature,NA,Graduated High School,1554582417878,51,male,competitive,English,NA,NA,true,false,NA,NA,NA,5c57890153fba80001bd3ba1,Modern cars have three wheels.,false,NA,1,Sat Apr 06 2019 15:11:19 GMT-0500 (Central Daylight Time),1554581479761,15.635283333333334,52,truth_value_judgements,number
7422,,9224,31,NA,,NA,true,NA,Graduated High School,1554582417878,51,male,competitive,English,NA,NA,true,false,NA,NA,NA,5c57890153fba80001bd3ba1,All elephants have trunks.,true,NA,4,Sat Apr 06 2019 15:11:19 GMT-0500 (Central Daylight Time),1554581479761,15.635283333333334,53,truth_value_judgements,all
7422,,6367,31,NA,,NA,true,NA,Graduated High School,1554582417878,51,male,competitive,English,NA,NA,true,false,NA,NA,NA,5c57890153fba80001bd3ba1,Monkeys have five fingers on each hand.,false,NA,2,Sat Apr 06 2019 15:11:19 GMT-0500 (Central Daylight Time),1554581479761,15.635283333333334,54,truth_value_judgements,number
7422,,5463,31,NA,,NA,true,NA,Graduated High School,1554582417878,51,male,competitive,English,NA,NA,true,false,NA,NA,NA,5c57890153fba80001bd3ba1,A week has seven days.,true,NA,3,Sat Apr 06 2019 15:11:19 GMT-0500 (Central Daylight Time),1554581479761,15.635283333333334,55,truth_value_judgements,number
7422,,5439,31,NA,,NA,true,NA,Graduated High School,1554582417878,51,male,competitive,English,NA,NA,true,false,NA,NA,NA,5c57890153fba80001bd3ba1,All eagles are birds.,true,NA,8,Sat Apr 06 2019 15:11:19 GMT-0500 (Central Daylight Time),1554581479761,15.635283333333334,56,truth_value_judgements,all
7422,,5479,31,NA,,NA,true,NA,Graduated High School,1554582417878,51,male,competitive,English,NA,NA,true,false,NA,NA,NA,5c57890153fba80001bd3ba1,All salmon are fish.,true,NA,6,Sat Apr 06 2019 15:11:19 GMT-0500 (Central Daylight Time),1554581479761,15.635283333333334,57,truth_value_judgements,all
7422,,5471,31,NA,,NA,true,NA,Graduated High School,1554582417878,51,male,competitive,English,NA,NA,true,false,NA,NA,NA,5c57890153fba80001bd3ba1,All crocodiles are reptiles.,true,NA,7,Sat Apr 06 2019 15:11:19 GMT-0500 (Central Daylight Time),1554581479761,15.635283333333334,58,truth_value_judgements,all
7422,,5584,31,NA,,NA,true,NA,Graduated High School,1554582417878,51,male,competitive,English,NA,NA,true,false,NA,NA,NA,5c57890153fba80001bd3ba1,All beetles are insects.,true,NA,10,Sat Apr 06 2019 15:11:19 GMT-0500 (Central Daylight Time),1554581479761,15.635283333333334,59,truth_value_judgements,all
7422,,5504,31,NA,,NA,implicature,NA,Graduated High School,1554582417878,51,male,competitive,English,NA,NA,true,false,NA,NA,NA,5c57890153fba80001bd3ba1,Some lizards are reptiles.,true,NA,2,Sat Apr 06 2019 15:11:19 GMT-0500 (Central Daylight Time),1554581479761,15.635283333333334,60,truth_value_judgements,some
7421,NA,3514,23,NA,,NA,NA,45,Graduated College,1554582199378,51,male,competitive,English,0,NA,NA,NA,NA,NA,images/Plate9.png,5c464cbf6ebaa60001ae1936,Please type the number you see in the picture above into the textbox. Please write 'none' if you do not see anything?,45,NA,NA,Sat Apr 06 2019 16:09:58 GMT-0400 (Eastern Daylight Time),1554581398027,13.35585,1,color_blindness_test,NA
7421,NA,3820,23,NA,,NA,NA,12,Graduated College,1554582199378,51,male,competitive,English,0,NA,NA,NA,NA,NA,images/Plate1.png,5c464cbf6ebaa60001ae1936,Please type the number you see in the picture above into the textbox. Please write 'none' if you do not see anything?,12,NA,NA,Sat Apr 06 2019 16:09:58 GMT-0400 (Eastern Daylight Time),1554581398027,13.35585,2,color_blindness_test,NA
7421,NA,8219,23,NA,,NA,NA,73,Graduated College,1554582199378,51,male,competitive,English,0,NA,NA,NA,NA,NA,images/Plate13.png,5c464cbf6ebaa60001ae1936,Please type the number you see in the picture above into the textbox. Please write 'none' if you do not see anything?,73,NA,NA,Sat Apr 06 2019 16:09:58 GMT-0400 (Eastern Daylight Time),1554581398027,13.35585,3,color_blindness_test,NA
7421,NA,15923,23,green|red|false,,<strong>none</strong> of the objects are <strong>green</strong>|<strong>none</strong> of the objects are <strong>pink</strong>|<strong>some</strong> of the objects are <strong>clowns</strong>,none,NA,Graduated College,1554582199378,51,male,competitive,English,NA,19,NA,NA,NA,NA,images/19NONE.PNG,5c464cbf6ebaa60001ae1936,NA,red,The <strong>green</strong> card is the card where,NA,Sat Apr 06 2019 16:09:58 GMT-0400 (Eastern Daylight Time),1554581398027,13.35585,1,sentence_completion,NA
7421,NA,12749,23,green|red|false,,<strong>all</strong> of the objects are <strong>trumpets</strong>|<strong>all</strong> of the objects are <strong>carrots</strong>|<strong>some</strong> of the objects are <strong>clowns</strong>,all,NA,Graduated College,1554582199378,51,male,competitive,English,NA,34,NA,NA,NA,NA,images/34ALL.PNG,5c464cbf6ebaa60001ae1936,NA,red,The <strong>green</strong> card is the card where,NA,Sat Apr 06 2019 16:09:58 GMT-0400 (Eastern Daylight Time),1554581398027,13.35585,2,sentence_completion,NA
7421,NA,8330,23,green|red|false,,all of the objects in the <strong>top row</strong> are <strong>blue</strong>|all of the objects in the <strong>top row</strong> are <strong>kites</strong>|<strong>all</strong> of the objects are <strong>clowns</strong>,ad_hoc,NA,Graduated College,1554582199378,51,male,competitive,English,NA,13,NA,NA,NA,NA,images/13HOC.PNG,5c464cbf6ebaa60001ae1936,NA,green,The <strong>green</strong> card is the card where,NA,Sat Apr 06 2019 16:09:58 GMT-0400 (Eastern Daylight Time),1554581398027,13.35585,3,sentence_completion,NA
7421,NA,5613,23,green|red|false,,<strong>some</strong> of the objects are <strong>beds</strong>|<strong>some</strong> of the objects are <strong>blue</strong>|<strong>all</strong> of the objects are <strong>clowns</strong>,some,NA,Graduated College,1554582199378,51,male,competitive,English,NA,10,NA,NA,NA,NA,images/10SOME.PNG,5c464cbf6ebaa60001ae1936,NA,false,The <strong>green</strong> card is the card where,NA,Sat Apr 06 2019 16:09:58 GMT-0400 (Eastern Daylight Time),1554581398027,13.35585,4,sentence_completion,NA
7421,NA,9895,23,green|red|false,,<strong>some</strong> of the objects are <strong>flowers</strong>|<strong>some</strong> of the objects are <strong>blue</strong>|<strong>all</strong> of the objects are <strong>clowns</strong>,some,NA,Graduated College,1554582199378,51,male,competitive,English,NA,12,NA,NA,NA,NA,images/12SOME.PNG,5c464cbf6ebaa60001ae1936,NA,red,The <strong>green</strong> card is the card where,NA,Sat Apr 06 2019 16:09:58 GMT-0400 (Eastern Daylight Time),1554581398027,13.35585,5,sentence_completion,NA
7421,NA,7870,23,green|red|false,,<strong>six</strong> of the objects are <strong>green</strong>|<strong>six</strong> of the objects are <strong>pears</strong>|<strong>eight</strong> of the objects are <strong>clowns</strong>,number,NA,Graduated College,1554582199378,51,male,competitive,English,NA,05,NA,NA,NA,NA,images/05NUM.PNG,5c464cbf6ebaa60001ae1936,NA,false,The <strong>green</strong> card is the card where,NA,Sat Apr 06 2019 16:09:58 GMT-0400 (Eastern Daylight Time),1554581398027,13.35585,6,sentence_completion,NA
7421,NA,4534,23,green|red|false,,<strong>none</strong> of the objects are <strong>blue</strong>|<strong>none</strong> of the objects are <strong>green</strong>|<strong>some</strong> of the objects are <strong>clowns</strong>,none,NA,Graduated College,1554582199378,51,male,competitive,English,NA,25,NA,NA,NA,NA,images/25NONE.PNG,5c464cbf6ebaa60001ae1936,NA,green,The <strong>green</strong> card is the card where,NA,Sat Apr 06 2019 16:09:58 GMT-0400 (Eastern Daylight Time),1554581398027,13.35585,7,sentence_completion,NA
7421,NA,3619,23,green|red|false,,<strong>all</strong> of the objects are <strong>blue</strong>|<strong>all</strong> of the objects are <strong>pink</strong>|<strong>some</strong> of the objects are <strong>clowns</strong>,all,NA,Graduated College,1554582199378,51,male,competitive,English,NA,35,NA,NA,NA,NA,images/35ALL.PNG,5c464cbf6ebaa60001ae1936,NA,green,The <strong>green</strong> card is the card where,NA,Sat Apr 06 2019 16:09:58 GMT-0400 (Eastern Daylight Time),1554581398027,13.35585,8,sentence_completion,NA
7421,NA,6150,23,green|red|false,,<strong>six</strong> of the objects are <strong>bathtubs</strong>|<strong>six</strong> of the objects are <strong>pink</strong>|<strong>eight</strong> of the objects are <strong>clowns</strong>,number,NA,Graduated College,1554582199378,51,male,competitive,English,NA,06,NA,NA,NA,NA,images/06NUM.PNG,5c464cbf6ebaa60001ae1936,NA,green,The <strong>green</strong> card is the card where,NA,Sat Apr 06 2019 16:09:58 GMT-0400 (Eastern Daylight Time),1554581398027,13.35585,9,sentence_completion,NA
7421,NA,4102,23,green|red|false,,<strong>none</strong> of the objects are <strong>pink</strong>|<strong>none</strong> of the objects are <strong>yellow</strong>|<strong>some</strong> of the objects are <strong>clowns</strong>,none,NA,Graduated College,1554582199378,51,male,competitive,English,NA,21,NA,NA,NA,NA,images/21NONE.PNG,5c464cbf6ebaa60001ae1936,NA,red,The <strong>green</strong> card is the card where,NA,Sat Apr 06 2019 16:09:58 GMT-0400 (Eastern Daylight Time),1554581398027,13.35585,10,sentence_completion,NA
7421,NA,7519,23,green|red|false,,<strong>some</strong> of the objects are <strong>pink</strong>|<strong>some</strong> of the objects are <strong>books</strong>|<strong>all</strong> of the objects are <strong>clowns</strong>,some,NA,Graduated College,1554582199378,51,male,competitive,English,NA,11,NA,NA,NA,NA,images/11SOME.PNG,5c464cbf6ebaa60001ae1936,NA,green,The <strong>green</strong> card is the card where,NA,Sat Apr 06 2019 16:09:58 GMT-0400 (Eastern Daylight Time),1554581398027,13.35585,11,sentence_completion,NA
7421,NA,4979,23,green|red|false,,<strong>all</strong> of the objects are <strong>pink</strong>|<strong>all</strong> of the objects are <strong>green</strong>|<strong>some</strong> of the objects are <strong>clowns</strong>,all,NA,Graduated College,1554582199378,51,male,competitive,English,NA,31,NA,NA,NA,NA,images/31ALL.PNG,5c464cbf6ebaa60001ae1936,NA,green,The <strong>green</strong> card is the card where,NA,Sat Apr 06 2019 16:09:58 GMT-0400 (Eastern Daylight Time),1554581398027,13.35585,12,sentence_completion,NA
7421,NA,4803,23,green|red|false,,<strong>all</strong> of the objects are <strong>yellow</strong>|<strong>all</strong> of the objects are <strong>pink</strong>|<strong>some</strong> of the objects are <strong>clowns</strong>,all,NA,Graduated College,1554582199378,51,male,competitive,English,NA,33,NA,NA,NA,NA,images/33ALL.PNG,5c464cbf6ebaa60001ae1936,NA,green,The <strong>green</strong> card is the card where,NA,Sat Apr 06 2019 16:09:58 GMT-0400 (Eastern Daylight Time),1554581398027,13.35585,13,sentence_completion,NA
7421,NA,2907,23,green|red|false,,<strong>all</strong> of the objects are <strong>shoes</strong>|<strong>all</strong> of the objects are <strong>trophies</strong>|<strong>some</strong> of the objects are <strong>clowns</strong>,all,NA,Graduated College,1554582199378,51,male,competitive,English,NA,30,NA,NA,NA,NA,images/30ALL.PNG,5c464cbf6ebaa60001ae1936,NA,red,The <strong>green</strong> card is the card where,NA,Sat Apr 06 2019 16:09:58 GMT-0400 (Eastern Daylight Time),1554581398027,13.35585,14,sentence_completion,NA
7421,NA,5537,23,green|red|false,,<strong>none</strong> of the objects are <strong>cars</strong>|<strong>none</strong> of the objects are <strong>sofas</strong>|<strong>some</strong> of the objects are <strong>clowns</strong>,none,NA,Graduated College,1554582199378,51,male,competitive,English,NA,26,NA,NA,NA,NA,images/26NONE.PNG,5c464cbf6ebaa60001ae1936,NA,false,The <strong>green</strong> card is the card where,NA,Sat Apr 06 2019 16:09:58 GMT-0400 (Eastern Daylight Time),1554581398027,13.35585,15,sentence_completion,NA
7421,NA,9100,23,green|red|false,,all of the objects in the <strong>middle row</strong> are <strong>crowns</strong>|all of the objects in the <strong>middle row</strong> are <strong>blue</strong>|<strong>all</strong> of the objects are <strong>clowns</strong>,ad_hoc,NA,Graduated College,1554582199378,51,male,competitive,English,NA,14,NA,NA,NA,NA,images/14HOC.PNG,5c464cbf6ebaa60001ae1936,NA,red,The <strong>green</strong> card is the card where,NA,Sat Apr 06 2019 16:09:58 GMT-0400 (Eastern Daylight Time),1554581398027,13.35585,16,sentence_completion,NA
7421,NA,3694,23,green|red|false,,<strong>some</strong> of the objects are <strong>lamps</strong>|<strong>some</strong> of the objects are <strong>yellow</strong>|<strong>all</strong> of the objects are <strong>clowns</strong>,some,NA,Graduated College,1554582199378,51,male,competitive,English,NA,08,NA,NA,NA,NA,images/08SOME.PNG,5c464cbf6ebaa60001ae1936,NA,green,The <strong>green</strong> card is the card where,NA,Sat Apr 06 2019 16:09:58 GMT-0400 (Eastern Daylight Time),1554581398027,13.35585,17,sentence_completion,NA
7421,NA,15064,23,green|red|false,,all of the objects in the <strong>middle row</strong> are <strong>green</strong>|all of the objects in the <strong>middle row</strong> are <strong>apples</strong>|<strong>all</strong> of the objects are <strong>clowns</strong>,ad_hoc,NA,Graduated College,1554582199378,51,male,competitive,English,NA,17,NA,NA,NA,NA,images/17HOC.PNG,5c464cbf6ebaa60001ae1936,NA,false,The <strong>green</strong> card is the card where,NA,Sat Apr 06 2019 16:09:58 GMT-0400 (Eastern Daylight Time),1554581398027,13.35585,18,sentence_completion,NA
7421,NA,6044,23,green|red|false,,<strong>none</strong> of the objects are <strong>cakes</strong>|<strong>none</strong> of the objects are <strong>teapots</strong>|<strong>some</strong> of the objects are <strong>clowns</strong>,none,NA,Graduated College,1554582199378,51,male,competitive,English,NA,20,NA,NA,NA,NA,images/20NONE.PNG,5c464cbf6ebaa60001ae1936,NA,green,The <strong>green</strong> card is the card where,NA,Sat Apr 06 2019 16:09:58 GMT-0400 (Eastern Daylight Time),1554581398027,13.35585,19,sentence_completion,NA
7421,NA,10182,23,green|red|false,,all of the objects in the <strong>bottom row</strong> are <strong>pink</strong>|all of the objects in the <strong>bottom row</strong> are <strong>bells</strong>|<strong>all</strong> of the objects are <strong>clowns</strong>,ad_hoc,NA,Graduated College,1554582199378,51,male,competitive,English,NA,18,NA,NA,NA,NA,images/18HOC.PNG,5c464cbf6ebaa60001ae1936,NA,false,The <strong>green</strong> card is the card where,NA,Sat Apr 06 2019 16:09:58 GMT-0400 (Eastern Daylight Time),1554581398027,13.35585,20,sentence_completion,NA
7421,NA,4524,23,green|red|false,,<strong>none</strong> of the objects are <strong>kettles</strong>|<strong>none</strong> of the objects are <strong>bananas</strong>|<strong>some</strong> of the objects are <strong>clowns</strong>,none,NA,Graduated College,1554582199378,51,male,competitive,English,NA,22,NA,NA,NA,NA,images/22NONE.PNG,5c464cbf6ebaa60001ae1936,NA,false,The <strong>green</strong> card is the card where,NA,Sat Apr 06 2019 16:09:58 GMT-0400 (Eastern Daylight Time),1554581398027,13.35585,21,sentence_completion,NA
7421,NA,4552,23,green|red|false,,<strong>none</strong> of the objects are <strong>blue</strong>|<strong>none</strong> of the objects are <strong>pink</strong>|<strong>some</strong> of the objects are <strong>clowns</strong>,none,NA,Graduated College,1554582199378,51,male,competitive,English,NA,23,NA,NA,NA,NA,images/23NONE.PNG,5c464cbf6ebaa60001ae1936,NA,green,The <strong>green</strong> card is the card where,NA,Sat Apr 06 2019 16:09:58 GMT-0400 (Eastern Daylight Time),1554581398027,13.35585,22,sentence_completion,NA
7421,NA,5501,23,green|red|false,,<strong>five</strong> of the objects are <strong>blue</strong>|<strong>five</strong> of the objects are <strong>spoons</strong>|<strong>seven</strong> of the objects are <strong>clowns</strong>,number,NA,Graduated College,1554582199378,51,male,competitive,English,NA,03,NA,NA,NA,NA,images/03NUM.PNG,5c464cbf6ebaa60001ae1936,NA,green,The <strong>green</strong> card is the card where,NA,Sat Apr 06 2019 16:09:58 GMT-0400 (Eastern Daylight Time),1554581398027,13.35585,23,sentence_completion,NA
7421,NA,6610,23,green|red|false,,<strong>five</strong> of the objects are <strong>pineapples</strong>|<strong>five</strong> of the objects are <strong>pink</strong>|<strong>seven</strong> of the objects are <strong>clowns</strong>,number,NA,Graduated College,1554582199378,51,male,competitive,English,NA,02,NA,NA,NA,NA,images/02NUM.PNG,5c464cbf6ebaa60001ae1936,NA,false,The <strong>green</strong> card is the card where,NA,Sat Apr 06 2019 16:09:58 GMT-0400 (Eastern Daylight Time),1554581398027,13.35585,24,sentence_completion,NA
7421,NA,6996,23,green|red|false,,<strong>five</strong> of the objects are <strong>pumpkins</strong>|<strong>five</strong> of the objects are <strong>blue</strong>|<strong>seven</strong> of the objects are <strong>clowns</strong>,number,NA,Graduated College,1554582199378,51,male,competitive,English,NA,01,NA,NA,NA,NA,images/01NUM.PNG,5c464cbf6ebaa60001ae1936,NA,false,The <strong>green</strong> card is the card where,NA,Sat Apr 06 2019 16:09:58 GMT-0400 (Eastern Daylight Time),1554581398027,13.35585,25,sentence_completion,NA
7421,NA,3922,23,green|red|false,,<strong>some</strong> of the objects are <strong>pink</strong>|<strong>some</strong> of the objects are <strong>keys</strong>|<strong>all</strong> of the objects are <strong>clowns</strong>,some,NA,Graduated College,1554582199378,51,male,competitive,English,NA,07,NA,NA,NA,NA,images/07SOME.PNG,5c464cbf6ebaa60001ae1936,NA,green,The <strong>green</strong> card is the card where,NA,Sat Apr 06 2019 16:09:58 GMT-0400 (Eastern Daylight Time),1554581398027,13.35585,26,sentence_completion,NA
7421,NA,9211,23,green|red|false,,<strong>six</strong> of the objects are <strong>green</strong>|<strong>six</strong> of the objects are <strong>toasters</strong>|<strong>eight</strong> of the objects are <strong>clowns</strong>,number,NA,Graduated College,1554582199378,51,male,competitive,English,NA,04,NA,NA,NA,NA,images/04NUM.PNG,5c464cbf6ebaa60001ae1936,NA,false,The <strong>green</strong> card is the card where,NA,Sat Apr 06 2019 16:09:58 GMT-0400 (Eastern Daylight Time),1554581398027,13.35585,27,sentence_completion,NA
7421,NA,2268,23,green|red|false,,<strong>all</strong> of the objects are <strong>drums</strong>|<strong>all</strong> of the objects are <strong>tents</strong>|<strong>some</strong> of the objects are <strong>clowns</strong>,all,NA,Graduated College,1554582199378,51,male,competitive,English,NA,32,NA,NA,NA,NA,images/32ALL.PNG,5c464cbf6ebaa60001ae1936,NA,red,The <strong>green</strong> card is the card where,NA,Sat Apr 06 2019 16:09:58 GMT-0400 (Eastern Daylight Time),1554581398027,13.35585,28,sentence_completion,NA
7421,NA,5054,23,green|red|false,,<strong>all</strong> of the objects are <strong>umbrellas</strong>|<strong>all</strong> of the objects are <strong>rockets</strong>|<strong>some</strong> of the objects are <strong>clowns</strong>,all,NA,Graduated College,1554582199378,51,male,competitive,English,NA,28,NA,NA,NA,NA,images/28ALL.PNG,5c464cbf6ebaa60001ae1936,NA,green,The <strong>green</strong> card is the card where,NA,Sat Apr 06 2019 16:09:58 GMT-0400 (Eastern Daylight Time),1554581398027,13.35585,29,sentence_completion,NA
7421,NA,3464,23,green|red|false,,<strong>none</strong> of the objects are <strong>pans</strong>|<strong>none</strong> of the objects are <strong>jars</strong>|<strong>some</strong> of the objects are <strong>clowns</strong>,none,NA,Graduated College,1554582199378,51,male,competitive,English,NA,24,NA,NA,NA,NA,images/24NONE.PNG,5c464cbf6ebaa60001ae1936,NA,false,The <strong>green</strong> card is the card where,NA,Sat Apr 06 2019 16:09:58 GMT-0400 (Eastern Daylight Time),1554581398027,13.35585,30,sentence_completion,NA
7421,NA,3411,23,green|red|false,,<strong>none</strong> of the objects are <strong>blue</strong>|<strong>none</strong> of the objects are <strong>yellow</strong>|<strong>some</strong> of the objects are <strong>clowns</strong>,none,NA,Graduated College,1554582199378,51,male,competitive,English,NA,27,NA,NA,NA,NA,images/27NONE.PNG,5c464cbf6ebaa60001ae1936,NA,red,The <strong>green</strong> card is the card where,NA,Sat Apr 06 2019 16:09:58 GMT-0400 (Eastern Daylight Time),1554581398027,13.35585,31,sentence_completion,NA
7421,NA,5400,23,green|red|false,,<strong>some</strong> of the objects are <strong>yellow</strong>|<strong>some</strong> of the objects are <strong>flags</strong>|<strong>all</strong> of the objects are <strong>clowns</strong>,some,NA,Graduated College,1554582199378,51,male,competitive,English,NA,09,NA,NA,NA,NA,images/09SOME.PNG,5c464cbf6ebaa60001ae1936,NA,green,The <strong>green</strong> card is the card where,NA,Sat Apr 06 2019 16:09:58 GMT-0400 (Eastern Daylight Time),1554581398027,13.35585,32,sentence_completion,NA
7421,NA,2620,23,green|red|false,,<strong>all</strong> of the objects are <strong>bottles</strong>|<strong>all</strong> of the objects are <strong>bikes</strong>|<strong>some</strong> of the objects are <strong>clowns</strong>,all,NA,Graduated College,1554582199378,51,male,competitive,English,NA,36,NA,NA,NA,NA,images/36ALL.PNG,5c464cbf6ebaa60001ae1936,NA,green,The <strong>green</strong> card is the card where,NA,Sat Apr 06 2019 16:09:58 GMT-0400 (Eastern Daylight Time),1554581398027,13.35585,33,sentence_completion,NA
7421,NA,5651,23,green|red|false,,<strong>all</strong> of the objects are <strong>green</strong>|<strong>all</strong> of the objects are <strong>yellow</strong>|<strong>some</strong> of the objects are <strong>clowns</strong>,all,NA,Graduated College,1554582199378,51,male,competitive,English,NA,29,NA,NA,NA,NA,images/29ALL.PNG,5c464cbf6ebaa60001ae1936,NA,false,The <strong>green</strong> card is the card where,NA,Sat Apr 06 2019 16:09:58 GMT-0400 (Eastern Daylight Time),1554581398027,13.35585,34,sentence_completion,NA
7421,NA,8894,23,green|red|false,,all of the objects in the <strong>bottom row</strong> are <strong>yellow</strong>|all of the objects in the <strong>bottom row</strong> are <strong>forks</strong>|<strong>all</strong> of the objects are <strong>clowns</strong>,ad_hoc,NA,Graduated College,1554582199378,51,male,competitive,English,NA,15,NA,NA,NA,NA,images/15HOC.PNG,5c464cbf6ebaa60001ae1936,NA,green,The <strong>green</strong> card is the card where,NA,Sat Apr 06 2019 16:09:58 GMT-0400 (Eastern Daylight Time),1554581398027,13.35585,35,sentence_completion,NA
7421,NA,4593,23,green|red|false,,all of the objects in the <strong>top row</strong> are <strong>vases</strong>|all of the objects in the <strong>top row</strong> are <strong>pink</strong>|<strong>all</strong> of the objects are <strong>clowns</strong>,ad_hoc,NA,Graduated College,1554582199378,51,male,competitive,English,NA,16,NA,NA,NA,NA,images/16HOC.PNG,5c464cbf6ebaa60001ae1936,NA,red,The <strong>green</strong> card is the card where,NA,Sat Apr 06 2019 16:09:58 GMT-0400 (Eastern Daylight Time),1554581398027,13.35585,36,sentence_completion,NA
7421,NA,12541,23,NA,,NA,NA,NA,Graduated College,1554582199378,51,male,competitive,English,NA,NA,NA,NA,0%,100%,NA,5c464cbf6ebaa60001ae1936,NA,20,NA,NA,Sat Apr 06 2019 16:09:58 GMT-0400 (Eastern Daylight Time),1554581398027,13.35585,1,performance_rating,NA
7421,,9953,23,NA,,NA,bizarre,NA,Graduated College,1554582199378,51,male,competitive,English,NA,NA,true,false,NA,NA,NA,5c464cbf6ebaa60001ae1936,Most chairs are hungry.,false,NA,2,Sat Apr 06 2019 16:09:58 GMT-0400 (Eastern Daylight Time),1554581398027,13.35585,1,truth_value_judgements,most
7421,,5690,23,NA,,NA,true,NA,Graduated College,1554582199378,51,male,competitive,English,NA,NA,true,false,NA,NA,NA,5c464cbf6ebaa60001ae1936,A normal motorcycle has two wheels.,true,NA,1,Sat Apr 06 2019 16:09:58 GMT-0400 (Eastern Daylight Time),1554581398027,13.35585,2,truth_value_judgements,number
7421,,5821,23,NA,,NA,implicature,NA,Graduated College,1554582199378,51,male,competitive,English,NA,NA,true,false,NA,NA,NA,5c464cbf6ebaa60001ae1936,A year has 245 days.,false,NA,4,Sat Apr 06 2019 16:09:58 GMT-0400 (Eastern Daylight Time),1554581398027,13.35585,3,truth_value_judgements,number
7421,,5818,23,NA,,NA,bizarre,NA,Graduated College,1554582199378,51,male,competitive,English,NA,NA,true,false,NA,NA,NA,5c464cbf6ebaa60001ae1936,The moon has two ears.,false,NA,1,Sat Apr 06 2019 16:09:58 GMT-0400 (Eastern Daylight Time),1554581398027,13.35585,4,truth_value_judgements,number
7421,,5609,23,NA,,NA,true,NA,Graduated College,1554582199378,51,male,competitive,English,NA,NA,true,false,NA,NA,NA,5c464cbf6ebaa60001ae1936,Monkeys have five fingers on each hand.,true,NA,2,Sat Apr 06 2019 16:09:58 GMT-0400 (Eastern Daylight Time),1554581398027,13.35585,5,truth_value_judgements,number
7421,,5717,23,NA,,NA,bizarre,NA,Graduated College,1554582199378,51,male,competitive,English,NA,NA,true,false,NA,NA,NA,5c464cbf6ebaa60001ae1936,Some stores are made of bubbles.,false,NA,4,Sat Apr 06 2019 16:09:58 GMT-0400 (Eastern Daylight Time),1554581398027,13.35585,6,truth_value_judgements,some
7421,,5474,23,NA,,NA,implicature,NA,Graduated College,1554582199378,51,male,competitive,English,NA,NA,true,false,NA,NA,NA,5c464cbf6ebaa60001ae1936,Most elephants are mammals.,true,NA,5,Sat Apr 06 2019 16:09:58 GMT-0400 (Eastern Daylight Time),1554581398027,13.35585,7,truth_value_judgements,most
7421,,5564,23,NA,,NA,true,NA,Graduated College,1554582199378,51,male,competitive,English,NA,NA,true,false,NA,NA,NA,5c464cbf6ebaa60001ae1936,Most horses are tame.,true,NA,5,Sat Apr 06 2019 16:09:58 GMT-0400 (Eastern Daylight Time),1554581398027,13.35585,8,truth_value_judgements,most
7421,,5983,23,NA,,NA,true,NA,Graduated College,1554582199378,51,male,competitive,English,NA,NA,true,false,NA,NA,NA,5c464cbf6ebaa60001ae1936,Most people know more than one language.,false,NA,4,Sat Apr 06 2019 16:09:58 GMT-0400 (Eastern Daylight Time),1554581398027,13.35585,9,truth_value_judgements,most
7421,,5769,23,NA,,NA,true,NA,Graduated College,1554582199378,51,male,competitive,English,NA,NA,true,false,NA,NA,NA,5c464cbf6ebaa60001ae1936,All robins have wings.,true,NA,3,Sat Apr 06 2019 16:09:58 GMT-0400 (Eastern Daylight Time),1554581398027,13.35585,10,truth_value_judgements,all
7421,,5437,23,NA,,NA,implicature,NA,Graduated College,1554582199378,51,male,competitive,English,NA,NA,true,false,NA,NA,NA,5c464cbf6ebaa60001ae1936,Some lizards are reptiles.,true,NA,2,Sat Apr 06 2019 16:09:58 GMT-0400 (Eastern Daylight Time),1554581398027,13.35585,11,truth_value_judgements,some
7421,,5424,23,NA,,NA,bizarre,NA,Graduated College,1554582199378,51,male,competitive,English,NA,NA,true,false,NA,NA,NA,5c464cbf6ebaa60001ae1936,Guitars have four legs.,false,NA,2,Sat Apr 06 2019 16:09:58 GMT-0400 (Eastern Daylight Time),1554581398027,13.35585,12,truth_value_judgements,number
7421,,5172,23,NA,,NA,true,NA,Graduated College,1554582199378,51,male,competitive,English,NA,NA,true,false,NA,NA,NA,5c464cbf6ebaa60001ae1936,All hammers have a handle.,true,NA,2,Sat Apr 06 2019 16:09:58 GMT-0400 (Eastern Daylight Time),1554581398027,13.35585,13,truth_value_judgements,all
7421,,5744,23,NA,,NA,bizarre,NA,Graduated College,1554582199378,51,male,competitive,English,NA,NA,true,false,NA,NA,NA,5c464cbf6ebaa60001ae1936,Some fish are made of leaves.,false,NA,1,Sat Apr 06 2019 16:09:58 GMT-0400 (Eastern Daylight Time),1554581398027,13.35585,14,truth_value_judgements,some
7421,,5460,23,NA,,NA,implicature,NA,Graduated College,1554582199378,51,male,competitive,English,NA,NA,true,false,NA,NA,NA,5c464cbf6ebaa60001ae1936,Most sharks are fish.,true,NA,1,Sat Apr 06 2019 16:09:58 GMT-0400 (Eastern Daylight Time),1554581398027,13.35585,15,truth_value_judgements,most
7421,,5889,23,NA,,NA,true,NA,Graduated College,1554582199378,51,male,competitive,English,NA,NA,true,false,NA,NA,NA,5c464cbf6ebaa60001ae1936,All eagles are birds.,true,NA,8,Sat Apr 06 2019 16:09:58 GMT-0400 (Eastern Daylight Time),1554581398027,13.35585,16,truth_value_judgements,all
7421,,5468,23,NA,,NA,bizarre,NA,Graduated College,1554582199378,51,male,competitive,English,NA,NA,true,false,NA,NA,NA,5c464cbf6ebaa60001ae1936,All birds have telephones.,false,NA,1,Sat Apr 06 2019 16:09:58 GMT-0400 (Eastern Daylight Time),1554581398027,13.35585,17,truth_value_judgements,all
7421,,5543,23,NA,,NA,implicature,NA,Graduated College,1554582199378,51,male,competitive,English,NA,NA,true,false,NA,NA,NA,5c464cbf6ebaa60001ae1936,Some cats are mammals.,false,NA,5,Sat Apr 06 2019 16:09:58 GMT-0400 (Eastern Daylight Time),1554581398027,13.35585,18,truth_value_judgements,some
7421,,5198,23,NA,,NA,bizarre,NA,Graduated College,1554582199378,51,male,competitive,English,NA,NA,true,false,NA,NA,NA,5c464cbf6ebaa60001ae1936,All couches have windows.,false,NA,5,Sat Apr 06 2019 16:09:58 GMT-0400 (Eastern Daylight Time),1554581398027,13.35585,19,truth_value_judgements,all
7421,,5710,23,NA,,NA,true,NA,Graduated College,1554582199378,51,male,competitive,English,NA,NA,true,false,NA,NA,NA,5c464cbf6ebaa60001ae1936,Some children are blond.,true,NA,4,Sat Apr 06 2019 16:09:58 GMT-0400 (Eastern Daylight Time),1554581398027,13.35585,20,truth_value_judgements,some
7421,,5449,23,NA,,NA,true,NA,Graduated College,1554582199378,51,male,competitive,English,NA,NA,true,false,NA,NA,NA,5c464cbf6ebaa60001ae1936,Some drinks are made from chocolate.,true,NA,5,Sat Apr 06 2019 16:09:58 GMT-0400 (Eastern Daylight Time),1554581398027,13.35585,21,truth_value_judgements,some
7421,,5165,23,NA,,NA,implicature,NA,Graduated College,1554582199378,51,male,competitive,English,NA,NA,true,false,NA,NA,NA,5c464cbf6ebaa60001ae1936,A human hand has two fingers.,false,NA,2,Sat Apr 06 2019 16:09:58 GMT-0400 (Eastern Daylight Time),1554581398027,13.35585,22,truth_value_judgements,number
7421,,5115,23,NA,,NA,true,NA,Graduated College,1554582199378,51,male,competitive,English,NA,NA,true,false,NA,NA,NA,5c464cbf6ebaa60001ae1936,All refrigerators have doors.,true,NA,5,Sat Apr 06 2019 16:09:58 GMT-0400 (Eastern Daylight Time),1554581398027,13.35585,23,truth_value_judgements,all
7421,,5160,23,NA,,NA,bizarre,NA,Graduated College,1554582199378,51,male,competitive,English,NA,NA,true,false,NA,NA,NA,5c464cbf6ebaa60001ae1936,Most elephants have glasses.,false,NA,1,Sat Apr 06 2019 16:09:58 GMT-0400 (Eastern Daylight Time),1554581398027,13.35585,24,truth_value_judgements,most
7421,,5132,23,NA,,NA,bizarre,NA,Graduated College,1554582199378,51,male,competitive,English,NA,NA,true,false,NA,NA,NA,5c464cbf6ebaa60001ae1936,Some fruits have computers.,false,NA,2,Sat Apr 06 2019 16:09:58 GMT-0400 (Eastern Daylight Time),1554581398027,13.35585,25,truth_value_judgements,some
7421,,5211,23,NA,,NA,bizarre,NA,Graduated College,1554582199378,51,male,competitive,English,NA,NA,true,false,NA,NA,NA,5c464cbf6ebaa60001ae1936,Some books are good to eat.,false,NA,3,Sat Apr 06 2019 16:09:58 GMT-0400 (Eastern Daylight Time),1554581398027,13.35585,26,truth_value_judgements,some
7421,,5476,23,NA,,NA,implicature,NA,Graduated College,1554582199378,51,male,competitive,English,NA,NA,true,false,NA,NA,NA,5c464cbf6ebaa60001ae1936,The universe contains three planets.,false,NA,3,Sat Apr 06 2019 16:09:58 GMT-0400 (Eastern Daylight Time),1554581398027,13.35585,27,truth_value_judgements,number
7421,,5969,23,NA,,NA,true,NA,Graduated College,1554582199378,51,male,competitive,English,NA,NA,true,false,NA,NA,NA,5c464cbf6ebaa60001ae1936,All books have pages.,true,NA,1,Sat Apr 06 2019 16:09:58 GMT-0400 (Eastern Daylight Time),1554581398027,13.35585,28,truth_value_judgements,all
7421,,6001,23,NA,,NA,implicature,NA,Graduated College,1554582199378,51,male,competitive,English,NA,NA,true,false,NA,NA,NA,5c464cbf6ebaa60001ae1936,Most pigeons are birds.,false,NA,4,Sat Apr 06 2019 16:09:58 GMT-0400 (Eastern Daylight Time),1554581398027,13.35585,29,truth_value_judgements,most
7421,,5206,23,NA,,NA,true,NA,Graduated College,1554582199378,51,male,competitive,English,NA,NA,true,false,NA,NA,NA,5c464cbf6ebaa60001ae1936,Some dresses have pockets.,false,NA,2,Sat Apr 06 2019 16:09:58 GMT-0400 (Eastern Daylight Time),1554581398027,13.35585,30,truth_value_judgements,some
7421,,5762,23,NA,,NA,true,NA,Graduated College,1554582199378,51,male,competitive,English,NA,NA,true,false,NA,NA,NA,5c464cbf6ebaa60001ae1936,A week has seven days.,true,NA,3,Sat Apr 06 2019 16:09:58 GMT-0400 (Eastern Daylight Time),1554581398027,13.35585,31,truth_value_judgements,number
7421,,5517,23,NA,,NA,bizarre,NA,Graduated College,1554582199378,51,male,competitive,English,NA,NA,true,false,NA,NA,NA,5c464cbf6ebaa60001ae1936,Forests last three nights.,false,NA,3,Sat Apr 06 2019 16:09:58 GMT-0400 (Eastern Daylight Time),1554581398027,13.35585,32,truth_value_judgements,number
7421,,5036,23,NA,,NA,true,NA,Graduated College,1554582199378,51,male,competitive,English,NA,NA,true,false,NA,NA,NA,5c464cbf6ebaa60001ae1936,Cats have four legs.,true,NA,4,Sat Apr 06 2019 16:09:58 GMT-0400 (Eastern Daylight Time),1554581398027,13.35585,33,truth_value_judgements,number
7421,,5688,23,NA,,NA,true,NA,Graduated College,1554582199378,51,male,competitive,English,NA,NA,true,false,NA,NA,NA,5c464cbf6ebaa60001ae1936,All salmon are fish.,true,NA,6,Sat Apr 06 2019 16:09:58 GMT-0400 (Eastern Daylight Time),1554581398027,13.35585,34,truth_value_judgements,all
7421,,5799,23,NA,,NA,implicature,NA,Graduated College,1554582199378,51,male,competitive,English,NA,NA,true,false,NA,NA,NA,5c464cbf6ebaa60001ae1936,Some owls are birds.,false,NA,3,Sat Apr 06 2019 16:09:58 GMT-0400 (Eastern Daylight Time),1554581398027,13.35585,35,truth_value_judgements,some
7421,,5788,23,NA,,NA,true,NA,Graduated College,1554582199378,51,male,competitive,English,NA,NA,true,false,NA,NA,NA,5c464cbf6ebaa60001ae1936,Humans have two eyes.,true,NA,5,Sat Apr 06 2019 16:09:58 GMT-0400 (Eastern Daylight Time),1554581398027,13.35585,36,truth_value_judgements,number
7421,,6210,23,NA,,NA,bizarre,NA,Graduated College,1554582199378,51,male,competitive,English,NA,NA,true,false,NA,NA,NA,5c464cbf6ebaa60001ae1936,All garages sing.,false,NA,4,Sat Apr 06 2019 16:09:58 GMT-0400 (Eastern Daylight Time),1554581398027,13.35585,37,truth_value_judgements,all
7421,,5072,23,NA,,NA,bizarre,NA,Graduated College,1554582199378,51,male,competitive,English,NA,NA,true,false,NA,NA,NA,5c464cbf6ebaa60001ae1936,The earth owns seven books.,false,NA,5,Sat Apr 06 2019 16:09:58 GMT-0400 (Eastern Daylight Time),1554581398027,13.35585,38,truth_value_judgements,number
7421,,5056,23,NA,,NA,bizarre,NA,Graduated College,1554582199378,51,male,competitive,English,NA,NA,true,false,NA,NA,NA,5c464cbf6ebaa60001ae1936,Most sofas are friendly.,false,NA,4,Sat Apr 06 2019 16:09:58 GMT-0400 (Eastern Daylight Time),1554581398027,13.35585,39,truth_value_judgements,most
7421,,5120,23,NA,,NA,implicature,NA,Graduated College,1554582199378,51,male,competitive,English,NA,NA,true,false,NA,NA,NA,5c464cbf6ebaa60001ae1936,Some ants are insects.,false,NA,4,Sat Apr 06 2019 16:09:58 GMT-0400 (Eastern Daylight Time),1554581398027,13.35585,40,truth_value_judgements,some
7421,,5822,23,NA,,NA,true,NA,Graduated College,1554582199378,51,male,competitive,English,NA,NA,true,false,NA,NA,NA,5c464cbf6ebaa60001ae1936,All dogs are mammals.,true,NA,9,Sat Apr 06 2019 16:09:58 GMT-0400 (Eastern Daylight Time),1554581398027,13.35585,41,truth_value_judgements,all
7421,,5115,23,NA,,NA,true,NA,Graduated College,1554582199378,51,male,competitive,English,NA,NA,true,false,NA,NA,NA,5c464cbf6ebaa60001ae1936,Some tools are made of wood..,true,NA,3,Sat Apr 06 2019 16:09:58 GMT-0400 (Eastern Daylight Time),1554581398027,13.35585,42,truth_value_judgements,some
7421,,5922,23,NA,,NA,true,NA,Graduated College,1554582199378,51,male,competitive,English,NA,NA,true,false,NA,NA,NA,5c464cbf6ebaa60001ae1936,Most days in a year are working days.,true,NA,3,Sat Apr 06 2019 16:09:58 GMT-0400 (Eastern Daylight Time),1554581398027,13.35585,43,truth_value_judgements,most
7421,,5043,23,NA,,NA,bizarre,NA,Graduated College,1554582199378,51,male,competitive,English,NA,NA,true,false,NA,NA,NA,5c464cbf6ebaa60001ae1936,All chairs tell time.,false,NA,3,Sat Apr 06 2019 16:09:58 GMT-0400 (Eastern Daylight Time),1554581398027,13.35585,44,truth_value_judgements,all
7421,,5227,23,NA,,NA,bizarre,NA,Graduated College,1554582199378,51,male,competitive,English,NA,NA,true,false,NA,NA,NA,5c464cbf6ebaa60001ae1936,All crayons have noses.,false,NA,2,Sat Apr 06 2019 16:09:58 GMT-0400 (Eastern Daylight Time),1554581398027,13.35585,45,truth_value_judgements,all
7421,,5839,23,NA,,NA,true,NA,Graduated College,1554582199378,51,male,competitive,English,NA,NA,true,false,NA,NA,NA,5c464cbf6ebaa60001ae1936,Some flowers are yellow.,true,NA,1,Sat Apr 06 2019 16:09:58 GMT-0400 (Eastern Daylight Time),1554581398027,13.35585,46,truth_value_judgements,some
7421,,5232,23,NA,,NA,true,NA,Graduated College,1554582199378,51,male,competitive,English,NA,NA,true,false,NA,NA,NA,5c464cbf6ebaa60001ae1936,All crocodiles are reptiles.,true,NA,7,Sat Apr 06 2019 16:09:58 GMT-0400 (Eastern Daylight Time),1554581398027,13.35585,47,truth_value_judgements,all
7421,,5369,23,NA,,NA,true,NA,Graduated College,1554582199378,51,male,competitive,English,NA,NA,true,false,NA,NA,NA,5c464cbf6ebaa60001ae1936,All elephants have trunks.,true,NA,4,Sat Apr 06 2019 16:09:58 GMT-0400 (Eastern Daylight Time),1554581398027,13.35585,48,truth_value_judgements,all
7421,,5222,23,NA,,NA,bizarre,NA,Graduated College,1554582199378,51,male,competitive,English,NA,NA,true,false,NA,NA,NA,5c464cbf6ebaa60001ae1936,Most tigers are literate.,false,NA,5,Sat Apr 06 2019 16:09:58 GMT-0400 (Eastern Daylight Time),1554581398027,13.35585,49,truth_value_judgements,most
7421,,5223,23,NA,,NA,bizarre,NA,Graduated College,1554582199378,51,male,competitive,English,NA,NA,true,false,NA,NA,NA,5c464cbf6ebaa60001ae1936,Most motorcycles like music.,false,NA,3,Sat Apr 06 2019 16:09:58 GMT-0400 (Eastern Daylight Time),1554581398027,13.35585,50,truth_value_judgements,most
7421,,5171,23,NA,,NA,bizarre,NA,Graduated College,1554582199378,51,male,competitive,English,NA,NA,true,false,NA,NA,NA,5c464cbf6ebaa60001ae1936,Some children are made of feathers.,false,NA,5,Sat Apr 06 2019 16:09:58 GMT-0400 (Eastern Daylight Time),1554581398027,13.35585,51,truth_value_judgements,some
7421,,5820,23,NA,,NA,true,NA,Graduated College,1554582199378,51,male,competitive,English,NA,NA,true,false,NA,NA,NA,5c464cbf6ebaa60001ae1936,Most people know their parents.,true,NA,1,Sat Apr 06 2019 16:09:58 GMT-0400 (Eastern Daylight Time),1554581398027,13.35585,52,truth_value_judgements,most
7421,,5075,23,NA,,NA,implicature,NA,Graduated College,1554582199378,51,male,competitive,English,NA,NA,true,false,NA,NA,NA,5c464cbf6ebaa60001ae1936,Modern cars have three wheels.,false,NA,1,Sat Apr 06 2019 16:09:58 GMT-0400 (Eastern Daylight Time),1554581398027,13.35585,53,truth_value_judgements,number
7421,,5031,23,NA,,NA,implicature,NA,Graduated College,1554582199378,51,male,competitive,English,NA,NA,true,false,NA,NA,NA,5c464cbf6ebaa60001ae1936,Most snakes are reptiles.,false,NA,3,Sat Apr 06 2019 16:09:58 GMT-0400 (Eastern Daylight Time),1554581398027,13.35585,54,truth_value_judgements,most
7421,,5129,23,NA,,NA,implicature,NA,Graduated College,1554582199378,51,male,competitive,English,NA,NA,true,false,NA,NA,NA,5c464cbf6ebaa60001ae1936,Most horses are mammals.,false,NA,2,Sat Apr 06 2019 16:09:58 GMT-0400 (Eastern Daylight Time),1554581398027,13.35585,55,truth_value_judgements,most
7421,,5045,23,NA,,NA,true,NA,Graduated College,1554582199378,51,male,competitive,English,NA,NA,true,false,NA,NA,NA,5c464cbf6ebaa60001ae1936,All beetles are insects.,true,NA,10,Sat Apr 06 2019 16:09:58 GMT-0400 (Eastern Daylight Time),1554581398027,13.35585,56,truth_value_judgements,all
7421,,6228,23,NA,,NA,true,NA,Graduated College,1554582199378,51,male,competitive,English,NA,NA,true,false,NA,NA,NA,5c464cbf6ebaa60001ae1936,Most birds can fly.,true,NA,2,Sat Apr 06 2019 16:09:58 GMT-0400 (Eastern Daylight Time),1554581398027,13.35585,57,truth_value_judgements,most
7421,,5479,23,NA,,NA,implicature,NA,Graduated College,1554582199378,51,male,competitive,English,NA,NA,true,false,NA,NA,NA,5c464cbf6ebaa60001ae1936,Some trouts are fish.,false,NA,1,Sat Apr 06 2019 16:09:58 GMT-0400 (Eastern Daylight Time),1554581398027,13.35585,58,truth_value_judgements,some
7421,,5509,23,NA,,NA,implicature,NA,Graduated College,1554582199378,51,male,competitive,English,NA,NA,true,false,NA,NA,NA,5c464cbf6ebaa60001ae1936,Monkeys have three bones.,false,NA,5,Sat Apr 06 2019 16:09:58 GMT-0400 (Eastern Daylight Time),1554581398027,13.35585,59,truth_value_judgements,number
7421,,5874,23,NA,,NA,bizarre,NA,Graduated College,1554582199378,51,male,competitive,English,NA,NA,true,false,NA,NA,NA,5c464cbf6ebaa60001ae1936,A week consists of five people.,false,NA,4,Sat Apr 06 2019 16:09:58 GMT-0400 (Eastern Daylight Time),1554581398027,13.35585,60,truth_value_judgements,number
7420,NA,8452,30,NA,,NA,NA,73,Graduated College,1554571437498,51,female,competitive,English,0,NA,NA,NA,NA,NA,images/Plate13.png,5c895d1331e0cd0001f88eab,Please type the number you see in the picture above into the textbox. Please write 'none' if you do not see anything?,23,NA,NA,Sat Apr 06 2019 18:06:17 GMT+0100 (BST),1554570377171,17.672116666666668,1,color_blindness_test,NA
7420,NA,4205,30,NA,,NA,NA,12,Graduated College,1554571437498,51,female,competitive,English,0,NA,NA,NA,NA,NA,images/Plate1.png,5c895d1331e0cd0001f88eab,Please type the number you see in the picture above into the textbox. Please write 'none' if you do not see anything?,12,NA,NA,Sat Apr 06 2019 18:06:17 GMT+0100 (BST),1554570377171,17.672116666666668,2,color_blindness_test,NA
7420,NA,5986,30,NA,,NA,NA,45,Graduated College,1554571437498,51,female,competitive,English,0,NA,NA,NA,NA,NA,images/Plate9.png,5c895d1331e0cd0001f88eab,Please type the number you see in the picture above into the textbox. Please write 'none' if you do not see anything?,45,NA,NA,Sat Apr 06 2019 18:06:17 GMT+0100 (BST),1554570377171,17.672116666666668,3,color_blindness_test,NA
7420,NA,9679,30,green|red|false,,<strong>some</strong> of the objects are <strong>pink</strong>|<strong>some</strong> of the objects are <strong>keys</strong>|<strong>all</strong> of the objects are <strong>clowns</strong>,some,NA,Graduated College,1554571437498,51,female,competitive,English,NA,07,NA,NA,NA,NA,images/07SOME.PNG,5c895d1331e0cd0001f88eab,NA,green,The <strong>green</strong> card is the card where,NA,Sat Apr 06 2019 18:06:17 GMT+0100 (BST),1554570377171,17.672116666666668,1,sentence_completion,NA
7420,NA,9055,30,green|red|false,,<strong>none</strong> of the objects are <strong>cars</strong>|<strong>none</strong> of the objects are <strong>sofas</strong>|<strong>some</strong> of the objects are <strong>clowns</strong>,none,NA,Graduated College,1554571437498,51,female,competitive,English,NA,26,NA,NA,NA,NA,images/26NONE.PNG,5c895d1331e0cd0001f88eab,NA,green,The <strong>green</strong> card is the card where,NA,Sat Apr 06 2019 18:06:17 GMT+0100 (BST),1554570377171,17.672116666666668,2,sentence_completion,NA
7420,NA,15146,30,green|red|false,,<strong>none</strong> of the objects are <strong>pink</strong>|<strong>none</strong> of the objects are <strong>yellow</strong>|<strong>some</strong> of the objects are <strong>clowns</strong>,none,NA,Graduated College,1554571437498,51,female,competitive,English,NA,21,NA,NA,NA,NA,images/21NONE.PNG,5c895d1331e0cd0001f88eab,NA,false,The <strong>green</strong> card is the card where,NA,Sat Apr 06 2019 18:06:17 GMT+0100 (BST),1554570377171,17.672116666666668,3,sentence_completion,NA
7420,NA,17991,30,green|red|false,,<strong>five</strong> of the objects are <strong>pumpkins</strong>|<strong>five</strong> of the objects are <strong>blue</strong>|<strong>seven</strong> of the objects are <strong>clowns</strong>,number,NA,Graduated College,1554571437498,51,female,competitive,English,NA,01,NA,NA,NA,NA,images/01NUM.PNG,5c895d1331e0cd0001f88eab,NA,red,The <strong>green</strong> card is the card where,NA,Sat Apr 06 2019 18:06:17 GMT+0100 (BST),1554570377171,17.672116666666668,4,sentence_completion,NA
7420,NA,12085,30,green|red|false,,all of the objects in the <strong>bottom row</strong> are <strong>pink</strong>|all of the objects in the <strong>bottom row</strong> are <strong>bells</strong>|<strong>all</strong> of the objects are <strong>clowns</strong>,ad_hoc,NA,Graduated College,1554571437498,51,female,competitive,English,NA,18,NA,NA,NA,NA,images/18HOC.PNG,5c895d1331e0cd0001f88eab,NA,green,The <strong>green</strong> card is the card where,NA,Sat Apr 06 2019 18:06:17 GMT+0100 (BST),1554570377171,17.672116666666668,5,sentence_completion,NA
7420,NA,7547,30,green|red|false,,all of the objects in the <strong>middle row</strong> are <strong>crowns</strong>|all of the objects in the <strong>middle row</strong> are <strong>blue</strong>|<strong>all</strong> of the objects are <strong>clowns</strong>,ad_hoc,NA,Graduated College,1554571437498,51,female,competitive,English,NA,14,NA,NA,NA,NA,images/14HOC.PNG,5c895d1331e0cd0001f88eab,NA,false,The <strong>green</strong> card is the card where,NA,Sat Apr 06 2019 18:06:17 GMT+0100 (BST),1554570377171,17.672116666666668,6,sentence_completion,NA
7420,NA,10955,30,green|red|false,,<strong>none</strong> of the objects are <strong>cakes</strong>|<strong>none</strong> of the objects are <strong>teapots</strong>|<strong>some</strong> of the objects are <strong>clowns</strong>,none,NA,Graduated College,1554571437498,51,female,competitive,English,NA,20,NA,NA,NA,NA,images/20NONE.PNG,5c895d1331e0cd0001f88eab,NA,false,The <strong>green</strong> card is the card where,NA,Sat Apr 06 2019 18:06:17 GMT+0100 (BST),1554570377171,17.672116666666668,7,sentence_completion,NA
7420,NA,12246,30,green|red|false,,<strong>six</strong> of the objects are <strong>bathtubs</strong>|<strong>six</strong> of the objects are <strong>pink</strong>|<strong>eight</strong> of the objects are <strong>clowns</strong>,number,NA,Graduated College,1554571437498,51,female,competitive,English,NA,06,NA,NA,NA,NA,images/06NUM.PNG,5c895d1331e0cd0001f88eab,NA,false,The <strong>green</strong> card is the card where,NA,Sat Apr 06 2019 18:06:17 GMT+0100 (BST),1554570377171,17.672116666666668,8,sentence_completion,NA
7420,NA,14177,30,green|red|false,,<strong>six</strong> of the objects are <strong>green</strong>|<strong>six</strong> of the objects are <strong>toasters</strong>|<strong>eight</strong> of the objects are <strong>clowns</strong>,number,NA,Graduated College,1554571437498,51,female,competitive,English,NA,04,NA,NA,NA,NA,images/04NUM.PNG,5c895d1331e0cd0001f88eab,NA,false,The <strong>green</strong> card is the card where,NA,Sat Apr 06 2019 18:06:17 GMT+0100 (BST),1554570377171,17.672116666666668,9,sentence_completion,NA
7420,NA,6754,30,green|red|false,,<strong>all</strong> of the objects are <strong>pink</strong>|<strong>all</strong> of the objects are <strong>green</strong>|<strong>some</strong> of the objects are <strong>clowns</strong>,all,NA,Graduated College,1554571437498,51,female,competitive,English,NA,31,NA,NA,NA,NA,images/31ALL.PNG,5c895d1331e0cd0001f88eab,NA,green,The <strong>green</strong> card is the card where,NA,Sat Apr 06 2019 18:06:17 GMT+0100 (BST),1554570377171,17.672116666666668,10,sentence_completion,NA
7420,NA,8907,30,green|red|false,,all of the objects in the <strong>top row</strong> are <strong>vases</strong>|all of the objects in the <strong>top row</strong> are <strong>pink</strong>|<strong>all</strong> of the objects are <strong>clowns</strong>,ad_hoc,NA,Graduated College,1554571437498,51,female,competitive,English,NA,16,NA,NA,NA,NA,images/16HOC.PNG,5c895d1331e0cd0001f88eab,NA,false,The <strong>green</strong> card is the card where,NA,Sat Apr 06 2019 18:06:17 GMT+0100 (BST),1554570377171,17.672116666666668,11,sentence_completion,NA
7420,NA,5590,30,green|red|false,,<strong>none</strong> of the objects are <strong>pans</strong>|<strong>none</strong> of the objects are <strong>jars</strong>|<strong>some</strong> of the objects are <strong>clowns</strong>,none,NA,Graduated College,1554571437498,51,female,competitive,English,NA,24,NA,NA,NA,NA,images/24NONE.PNG,5c895d1331e0cd0001f88eab,NA,red,The <strong>green</strong> card is the card where,NA,Sat Apr 06 2019 18:06:17 GMT+0100 (BST),1554570377171,17.672116666666668,12,sentence_completion,NA
7420,NA,6050,30,green|red|false,,<strong>all</strong> of the objects are <strong>trumpets</strong>|<strong>all</strong> of the objects are <strong>carrots</strong>|<strong>some</strong> of the objects are <strong>clowns</strong>,all,NA,Graduated College,1554571437498,51,female,competitive,English,NA,34,NA,NA,NA,NA,images/34ALL.PNG,5c895d1331e0cd0001f88eab,NA,green,The <strong>green</strong> card is the card where,NA,Sat Apr 06 2019 18:06:17 GMT+0100 (BST),1554570377171,17.672116666666668,13,sentence_completion,NA
7420,NA,7463,30,green|red|false,,<strong>none</strong> of the objects are <strong>kettles</strong>|<strong>none</strong> of the objects are <strong>bananas</strong>|<strong>some</strong> of the objects are <strong>clowns</strong>,none,NA,Graduated College,1554571437498,51,female,competitive,English,NA,22,NA,NA,NA,NA,images/22NONE.PNG,5c895d1331e0cd0001f88eab,NA,red,The <strong>green</strong> card is the card where,NA,Sat Apr 06 2019 18:06:17 GMT+0100 (BST),1554570377171,17.672116666666668,14,sentence_completion,NA
7420,NA,4841,30,green|red|false,,<strong>none</strong> of the objects are <strong>blue</strong>|<strong>none</strong> of the objects are <strong>green</strong>|<strong>some</strong> of the objects are <strong>clowns</strong>,none,NA,Graduated College,1554571437498,51,female,competitive,English,NA,25,NA,NA,NA,NA,images/25NONE.PNG,5c895d1331e0cd0001f88eab,NA,false,The <strong>green</strong> card is the card where,NA,Sat Apr 06 2019 18:06:17 GMT+0100 (BST),1554570377171,17.672116666666668,15,sentence_completion,NA
7420,NA,9920,30,green|red|false,,<strong>none</strong> of the objects are <strong>green</strong>|<strong>none</strong> of the objects are <strong>pink</strong>|<strong>some</strong> of the objects are <strong>clowns</strong>,none,NA,Graduated College,1554571437498,51,female,competitive,English,NA,19,NA,NA,NA,NA,images/19NONE.PNG,5c895d1331e0cd0001f88eab,NA,green,The <strong>green</strong> card is the card where,NA,Sat Apr 06 2019 18:06:17 GMT+0100 (BST),1554570377171,17.672116666666668,16,sentence_completion,NA
7420,NA,7055,30,green|red|false,,<strong>all</strong> of the objects are <strong>green</strong>|<strong>all</strong> of the objects are <strong>yellow</strong>|<strong>some</strong> of the objects are <strong>clowns</strong>,all,NA,Graduated College,1554571437498,51,female,competitive,English,NA,29,NA,NA,NA,NA,images/29ALL.PNG,5c895d1331e0cd0001f88eab,NA,red,The <strong>green</strong> card is the card where,NA,Sat Apr 06 2019 18:06:17 GMT+0100 (BST),1554570377171,17.672116666666668,17,sentence_completion,NA
7420,NA,8013,30,green|red|false,,<strong>some</strong> of the objects are <strong>lamps</strong>|<strong>some</strong> of the objects are <strong>yellow</strong>|<strong>all</strong> of the objects are <strong>clowns</strong>,some,NA,Graduated College,1554571437498,51,female,competitive,English,NA,08,NA,NA,NA,NA,images/08SOME.PNG,5c895d1331e0cd0001f88eab,NA,green,The <strong>green</strong> card is the card where,NA,Sat Apr 06 2019 18:06:17 GMT+0100 (BST),1554570377171,17.672116666666668,18,sentence_completion,NA
7420,NA,3527,30,green|red|false,,<strong>all</strong> of the objects are <strong>yellow</strong>|<strong>all</strong> of the objects are <strong>pink</strong>|<strong>some</strong> of the objects are <strong>clowns</strong>,all,NA,Graduated College,1554571437498,51,female,competitive,English,NA,33,NA,NA,NA,NA,images/33ALL.PNG,5c895d1331e0cd0001f88eab,NA,false,The <strong>green</strong> card is the card where,NA,Sat Apr 06 2019 18:06:17 GMT+0100 (BST),1554570377171,17.672116666666668,19,sentence_completion,NA
7420,NA,5770,30,green|red|false,,<strong>all</strong> of the objects are <strong>bottles</strong>|<strong>all</strong> of the objects are <strong>bikes</strong>|<strong>some</strong> of the objects are <strong>clowns</strong>,all,NA,Graduated College,1554571437498,51,female,competitive,English,NA,36,NA,NA,NA,NA,images/36ALL.PNG,5c895d1331e0cd0001f88eab,NA,red,The <strong>green</strong> card is the card where,NA,Sat Apr 06 2019 18:06:17 GMT+0100 (BST),1554570377171,17.672116666666668,20,sentence_completion,NA
7420,NA,7700,30,green|red|false,,<strong>some</strong> of the objects are <strong>flowers</strong>|<strong>some</strong> of the objects are <strong>blue</strong>|<strong>all</strong> of the objects are <strong>clowns</strong>,some,NA,Graduated College,1554571437498,51,female,competitive,English,NA,12,NA,NA,NA,NA,images/12SOME.PNG,5c895d1331e0cd0001f88eab,NA,false,The <strong>green</strong> card is the card where,NA,Sat Apr 06 2019 18:06:17 GMT+0100 (BST),1554570377171,17.672116666666668,21,sentence_completion,NA
7420,NA,7208,30,green|red|false,,<strong>some</strong> of the objects are <strong>pink</strong>|<strong>some</strong> of the objects are <strong>books</strong>|<strong>all</strong> of the objects are <strong>clowns</strong>,some,NA,Graduated College,1554571437498,51,female,competitive,English,NA,11,NA,NA,NA,NA,images/11SOME.PNG,5c895d1331e0cd0001f88eab,NA,false,The <strong>green</strong> card is the card where,NA,Sat Apr 06 2019 18:06:17 GMT+0100 (BST),1554570377171,17.672116666666668,22,sentence_completion,NA
7420,NA,4102,30,green|red|false,,<strong>all</strong> of the objects are <strong>shoes</strong>|<strong>all</strong> of the objects are <strong>trophies</strong>|<strong>some</strong> of the objects are <strong>clowns</strong>,all,NA,Graduated College,1554571437498,51,female,competitive,English,NA,30,NA,NA,NA,NA,images/30ALL.PNG,5c895d1331e0cd0001f88eab,NA,red,The <strong>green</strong> card is the card where,NA,Sat Apr 06 2019 18:06:17 GMT+0100 (BST),1554570377171,17.672116666666668,23,sentence_completion,NA
7420,NA,12453,30,green|red|false,,<strong>five</strong> of the objects are <strong>blue</strong>|<strong>five</strong> of the objects are <strong>spoons</strong>|<strong>seven</strong> of the objects are <strong>clowns</strong>,number,NA,Graduated College,1554571437498,51,female,competitive,English,NA,03,NA,NA,NA,NA,images/03NUM.PNG,5c895d1331e0cd0001f88eab,NA,green,The <strong>green</strong> card is the card where,NA,Sat Apr 06 2019 18:06:17 GMT+0100 (BST),1554570377171,17.672116666666668,24,sentence_completion,NA
7420,NA,4309,30,green|red|false,,all of the objects in the <strong>bottom row</strong> are <strong>yellow</strong>|all of the objects in the <strong>bottom row</strong> are <strong>forks</strong>|<strong>all</strong> of the objects are <strong>clowns</strong>,ad_hoc,NA,Graduated College,1554571437498,51,female,competitive,English,NA,15,NA,NA,NA,NA,images/15HOC.PNG,5c895d1331e0cd0001f88eab,NA,red,The <strong>green</strong> card is the card where,NA,Sat Apr 06 2019 18:06:17 GMT+0100 (BST),1554570377171,17.672116666666668,25,sentence_completion,NA
7420,NA,11716,30,green|red|false,,all of the objects in the <strong>middle row</strong> are <strong>green</strong>|all of the objects in the <strong>middle row</strong> are <strong>apples</strong>|<strong>all</strong> of the objects are <strong>clowns</strong>,ad_hoc,NA,Graduated College,1554571437498,51,female,competitive,English,NA,17,NA,NA,NA,NA,images/17HOC.PNG,5c895d1331e0cd0001f88eab,NA,red,The <strong>green</strong> card is the card where,NA,Sat Apr 06 2019 18:06:17 GMT+0100 (BST),1554570377171,17.672116666666668,26,sentence_completion,NA
7420,NA,9324,30,green|red|false,,<strong>some</strong> of the objects are <strong>yellow</strong>|<strong>some</strong> of the objects are <strong>flags</strong>|<strong>all</strong> of the objects are <strong>clowns</strong>,some,NA,Graduated College,1554571437498,51,female,competitive,English,NA,09,NA,NA,NA,NA,images/09SOME.PNG,5c895d1331e0cd0001f88eab,NA,false,The <strong>green</strong> card is the card where,NA,Sat Apr 06 2019 18:06:17 GMT+0100 (BST),1554570377171,17.672116666666668,27,sentence_completion,NA
7420,NA,8299,30,green|red|false,,<strong>some</strong> of the objects are <strong>beds</strong>|<strong>some</strong> of the objects are <strong>blue</strong>|<strong>all</strong> of the objects are <strong>clowns</strong>,some,NA,Graduated College,1554571437498,51,female,competitive,English,NA,10,NA,NA,NA,NA,images/10SOME.PNG,5c895d1331e0cd0001f88eab,NA,red,The <strong>green</strong> card is the card where,NA,Sat Apr 06 2019 18:06:17 GMT+0100 (BST),1554570377171,17.672116666666668,28,sentence_completion,NA
7420,NA,7697,30,green|red|false,,<strong>none</strong> of the objects are <strong>blue</strong>|<strong>none</strong> of the objects are <strong>pink</strong>|<strong>some</strong> of the objects are <strong>clowns</strong>,none,NA,Graduated College,1554571437498,51,female,competitive,English,NA,23,NA,NA,NA,NA,images/23NONE.PNG,5c895d1331e0cd0001f88eab,NA,false,The <strong>green</strong> card is the card where,NA,Sat Apr 06 2019 18:06:17 GMT+0100 (BST),1554570377171,17.672116666666668,29,sentence_completion,NA
7420,NA,7310,30,green|red|false,,<strong>none</strong> of the objects are <strong>blue</strong>|<strong>none</strong> of the objects are <strong>yellow</strong>|<strong>some</strong> of the objects are <strong>clowns</strong>,none,NA,Graduated College,1554571437498,51,female,competitive,English,NA,27,NA,NA,NA,NA,images/27NONE.PNG,5c895d1331e0cd0001f88eab,NA,red,The <strong>green</strong> card is the card where,NA,Sat Apr 06 2019 18:06:17 GMT+0100 (BST),1554570377171,17.672116666666668,30,sentence_completion,NA
7420,NA,10366,30,green|red|false,,<strong>five</strong> of the objects are <strong>pineapples</strong>|<strong>five</strong> of the objects are <strong>pink</strong>|<strong>seven</strong> of the objects are <strong>clowns</strong>,number,NA,Graduated College,1554571437498,51,female,competitive,English,NA,02,NA,NA,NA,NA,images/02NUM.PNG,5c895d1331e0cd0001f88eab,NA,red,The <strong>green</strong> card is the card where,NA,Sat Apr 06 2019 18:06:17 GMT+0100 (BST),1554570377171,17.672116666666668,31,sentence_completion,NA
7420,NA,5354,30,green|red|false,,<strong>all</strong> of the objects are <strong>umbrellas</strong>|<strong>all</strong> of the objects are <strong>rockets</strong>|<strong>some</strong> of the objects are <strong>clowns</strong>,all,NA,Graduated College,1554571437498,51,female,competitive,English,NA,28,NA,NA,NA,NA,images/28ALL.PNG,5c895d1331e0cd0001f88eab,NA,red,The <strong>green</strong> card is the card where,NA,Sat Apr 06 2019 18:06:17 GMT+0100 (BST),1554570377171,17.672116666666668,32,sentence_completion,NA
7420,NA,6463,30,green|red|false,,all of the objects in the <strong>top row</strong> are <strong>blue</strong>|all of the objects in the <strong>top row</strong> are <strong>kites</strong>|<strong>all</strong> of the objects are <strong>clowns</strong>,ad_hoc,NA,Graduated College,1554571437498,51,female,competitive,English,NA,13,NA,NA,NA,NA,images/13HOC.PNG,5c895d1331e0cd0001f88eab,NA,red,The <strong>green</strong> card is the card where,NA,Sat Apr 06 2019 18:06:17 GMT+0100 (BST),1554570377171,17.672116666666668,33,sentence_completion,NA
7420,NA,19918,30,green|red|false,,<strong>six</strong> of the objects are <strong>green</strong>|<strong>six</strong> of the objects are <strong>pears</strong>|<strong>eight</strong> of the objects are <strong>clowns</strong>,number,NA,Graduated College,1554571437498,51,female,competitive,English,NA,05,NA,NA,NA,NA,images/05NUM.PNG,5c895d1331e0cd0001f88eab,NA,false,The <strong>green</strong> card is the card where,NA,Sat Apr 06 2019 18:06:17 GMT+0100 (BST),1554570377171,17.672116666666668,34,sentence_completion,NA
7420,NA,3926,30,green|red|false,,<strong>all</strong> of the objects are <strong>drums</strong>|<strong>all</strong> of the objects are <strong>tents</strong>|<strong>some</strong> of the objects are <strong>clowns</strong>,all,NA,Graduated College,1554571437498,51,female,competitive,English,NA,32,NA,NA,NA,NA,images/32ALL.PNG,5c895d1331e0cd0001f88eab,NA,green,The <strong>green</strong> card is the card where,NA,Sat Apr 06 2019 18:06:17 GMT+0100 (BST),1554570377171,17.672116666666668,35,sentence_completion,NA
7420,NA,6571,30,green|red|false,,<strong>all</strong> of the objects are <strong>blue</strong>|<strong>all</strong> of the objects are <strong>pink</strong>|<strong>some</strong> of the objects are <strong>clowns</strong>,all,NA,Graduated College,1554571437498,51,female,competitive,English,NA,35,NA,NA,NA,NA,images/35ALL.PNG,5c895d1331e0cd0001f88eab,NA,green,The <strong>green</strong> card is the card where,NA,Sat Apr 06 2019 18:06:17 GMT+0100 (BST),1554570377171,17.672116666666668,36,sentence_completion,NA
7420,NA,12220,30,NA,,NA,NA,NA,Graduated College,1554571437498,51,female,competitive,English,NA,NA,NA,NA,0%,100%,NA,5c895d1331e0cd0001f88eab,NA,89,NA,NA,Sat Apr 06 2019 18:06:17 GMT+0100 (BST),1554570377171,17.672116666666668,1,performance_rating,NA
7420,,9369,30,NA,,NA,true,NA,Graduated College,1554571437498,51,female,competitive,English,NA,NA,true,false,NA,NA,NA,5c895d1331e0cd0001f88eab,All salmon are fish.,true,NA,6,Sat Apr 06 2019 18:06:17 GMT+0100 (BST),1554570377171,17.672116666666668,1,truth_value_judgements,all
7420,,5625,30,NA,,NA,true,NA,Graduated College,1554571437498,51,female,competitive,English,NA,NA,true,false,NA,NA,NA,5c895d1331e0cd0001f88eab,Some flowers are yellow.,true,NA,1,Sat Apr 06 2019 18:06:17 GMT+0100 (BST),1554570377171,17.672116666666668,2,truth_value_judgements,some
7420,,5844,30,NA,,NA,bizarre,NA,Graduated College,1554571437498,51,female,competitive,English,NA,NA,true,false,NA,NA,NA,5c895d1331e0cd0001f88eab,Most tigers are literate.,false,NA,5,Sat Apr 06 2019 18:06:17 GMT+0100 (BST),1554570377171,17.672116666666668,3,truth_value_judgements,most
7420,,5828,30,NA,,NA,bizarre,NA,Graduated College,1554571437498,51,female,competitive,English,NA,NA,true,false,NA,NA,NA,5c895d1331e0cd0001f88eab,Most sofas are friendly.,false,NA,4,Sat Apr 06 2019 18:06:17 GMT+0100 (BST),1554570377171,17.672116666666668,4,truth_value_judgements,most
7420,,5787,30,NA,,NA,true,NA,Graduated College,1554571437498,51,female,competitive,English,NA,NA,true,false,NA,NA,NA,5c895d1331e0cd0001f88eab,All robins have wings.,true,NA,3,Sat Apr 06 2019 18:06:17 GMT+0100 (BST),1554570377171,17.672116666666668,5,truth_value_judgements,all
7420,,5689,30,NA,,NA,true,NA,Graduated College,1554571437498,51,female,competitive,English,NA,NA,true,false,NA,NA,NA,5c895d1331e0cd0001f88eab,Most horses are tame.,false,NA,5,Sat Apr 06 2019 18:06:17 GMT+0100 (BST),1554570377171,17.672116666666668,6,truth_value_judgements,most
