submission_id,QUD,RT,age,comments,condition,education,endTime,experiment_id,gender,languages,option1,option2,prolific_id,question,response,sentence_nr,startDate,startTime,timeSpent,trial_number,trial_type,trigger
6709,,5457,33,,true,Higher Degree,1552737584750,42,female,English,true,false,5bfd5da11fe1e50001406bd5,Some children are blond.,true,4,Sat Mar 16 2019 11:55:10 GMT+0000 (Greenwich Mean Time),1552737310211,4.57565,1,truth_value_judgements,some
6709,,3978,33,,true,Higher Degree,1552737584750,42,female,English,true,false,5bfd5da11fe1e50001406bd5,All refrigerators have doors.,true,5,Sat Mar 16 2019 11:55:10 GMT+0000 (Greenwich Mean Time),1552737310211,4.57565,2,truth_value_judgements,all
6709,,3787,33,,implicature,Higher Degree,1552737584750,42,female,English,true,false,5bfd5da11fe1e50001406bd5,Modern cars have three wheels.,false,1,Sat Mar 16 2019 11:55:10 GMT+0000 (Greenwich Mean Time),1552737310211,4.57565,3,truth_value_judgements,number
6709,,4357,33,,bizarre,Higher Degree,1552737584750,42,female,English,true,false,5bfd5da11fe1e50001406bd5,Some books are good to eat.,false,3,Sat Mar 16 2019 11:55:10 GMT+0000 (Greenwich Mean Time),1552737310211,4.57565,4,truth_value_judgements,some
6709,,3659,33,,bizarre,Higher Degree,1552737584750,42,female,English,true,false,5bfd5da11fe1e50001406bd5,Most motorcycles like music.,false,3,Sat Mar 16 2019 11:55:10 GMT+0000 (Greenwich Mean Time),1552737310211,4.57565,5,truth_value_judgements,most
6709,,4246,33,,implicature,Higher Degree,1552737584750,42,female,English,true,false,5bfd5da11fe1e50001406bd5,Some cats are mammals.,false,5,Sat Mar 16 2019 11:55:10 GMT+0000 (Greenwich Mean Time),1552737310211,4.57565,6,truth_value_judgements,some
6709,,3114,33,,true,Higher Degree,1552737584750,42,female,English,true,false,5bfd5da11fe1e50001406bd5,A normal motorcycle has two wheels.,true,1,Sat Mar 16 2019 11:55:10 GMT+0000 (Greenwich Mean Time),1552737310211,4.57565,7,truth_value_judgements,number
6709,,4412,33,,implicature,Higher Degree,1552737584750,42,female,English,true,false,5bfd5da11fe1e50001406bd5,Most horses are mammals.,false,2,Sat Mar 16 2019 11:55:10 GMT+0000 (Greenwich Mean Time),1552737310211,4.57565,8,truth_value_judgements,most
6709,,2429,33,,true,Higher Degree,1552737584750,42,female,English,true,false,5bfd5da11fe1e50001406bd5,Most birds can fly.,true,2,Sat Mar 16 2019 11:55:10 GMT+0000 (Greenwich Mean Time),1552737310211,4.57565,9,truth_value_judgements,most
6709,,3850,33,,true,Higher Degree,1552737584750,42,female,English,true,false,5bfd5da11fe1e50001406bd5,All robins have wings.,true,3,Sat Mar 16 2019 11:55:10 GMT+0000 (Greenwich Mean Time),1552737310211,4.57565,10,truth_value_judgements,all
6709,,8070,33,,bizarre,Higher Degree,1552737584750,42,female,English,true,false,5bfd5da11fe1e50001406bd5,Some fish are made of leaves.,false,1,Sat Mar 16 2019 11:55:10 GMT+0000 (Greenwich Mean Time),1552737310211,4.57565,11,truth_value_judgements,some
6709,,3354,33,,bizarre,Higher Degree,1552737584750,42,female,English,true,false,5bfd5da11fe1e50001406bd5,All couches have windows.,false,5,Sat Mar 16 2019 11:55:10 GMT+0000 (Greenwich Mean Time),1552737310211,4.57565,12,truth_value_judgements,all
6709,,3216,33,,true,Higher Degree,1552737584750,42,female,English,true,false,5bfd5da11fe1e50001406bd5,All hammers have a handle.,true,2,Sat Mar 16 2019 11:55:10 GMT+0000 (Greenwich Mean Time),1552737310211,4.57565,13,truth_value_judgements,all
6709,,2845,33,,true,Higher Degree,1552737584750,42,female,English,true,false,5bfd5da11fe1e50001406bd5,Some dresses have pockets.,true,2,Sat Mar 16 2019 11:55:10 GMT+0000 (Greenwich Mean Time),1552737310211,4.57565,14,truth_value_judgements,some
6709,,3927,33,,true,Higher Degree,1552737584750,42,female,English,true,false,5bfd5da11fe1e50001406bd5,Monkeys have five fingers on each hand.,true,2,Sat Mar 16 2019 11:55:10 GMT+0000 (Greenwich Mean Time),1552737310211,4.57565,15,truth_value_judgements,number
6709,,6339,33,,true,Higher Degree,1552737584750,42,female,English,true,false,5bfd5da11fe1e50001406bd5,A week has seven days.,true,3,Sat Mar 16 2019 11:55:10 GMT+0000 (Greenwich Mean Time),1552737310211,4.57565,16,truth_value_judgements,number
6709,,3644,33,,bizarre,Higher Degree,1552737584750,42,female,English,true,false,5bfd5da11fe1e50001406bd5,The moon has two ears.,false,1,Sat Mar 16 2019 11:55:10 GMT+0000 (Greenwich Mean Time),1552737310211,4.57565,17,truth_value_judgements,number
6709,,3638,33,,bizarre,Higher Degree,1552737584750,42,female,English,true,false,5bfd5da11fe1e50001406bd5,Some children are made of feathers.,false,5,Sat Mar 16 2019 11:55:10 GMT+0000 (Greenwich Mean Time),1552737310211,4.57565,18,truth_value_judgements,some
6709,,2776,33,,true,Higher Degree,1552737584750,42,female,English,true,false,5bfd5da11fe1e50001406bd5,All salmon are fish.,true,6,Sat Mar 16 2019 11:55:10 GMT+0000 (Greenwich Mean Time),1552737310211,4.57565,19,truth_value_judgements,all
6709,,2960,33,,bizarre,Higher Degree,1552737584750,42,female,English,true,false,5bfd5da11fe1e50001406bd5,All garages sing.,false,4,Sat Mar 16 2019 11:55:10 GMT+0000 (Greenwich Mean Time),1552737310211,4.57565,20,truth_value_judgements,all
6709,,4204,33,,true,Higher Degree,1552737584750,42,female,English,true,false,5bfd5da11fe1e50001406bd5,Some drinks are made from chocolate.,true,5,Sat Mar 16 2019 11:55:10 GMT+0000 (Greenwich Mean Time),1552737310211,4.57565,21,truth_value_judgements,some
6709,,3575,33,,implicature,Higher Degree,1552737584750,42,female,English,true,false,5bfd5da11fe1e50001406bd5,Some trouts are fish.,true,1,Sat Mar 16 2019 11:55:10 GMT+0000 (Greenwich Mean Time),1552737310211,4.57565,22,truth_value_judgements,some
6709,,2540,33,,true,Higher Degree,1552737584750,42,female,English,true,false,5bfd5da11fe1e50001406bd5,Humans have two eyes.,true,5,Sat Mar 16 2019 11:55:10 GMT+0000 (Greenwich Mean Time),1552737310211,4.57565,23,truth_value_judgements,number
6709,,3355,33,,true,Higher Degree,1552737584750,42,female,English,true,false,5bfd5da11fe1e50001406bd5,Most horses are tame.,true,5,Sat Mar 16 2019 11:55:10 GMT+0000 (Greenwich Mean Time),1552737310211,4.57565,24,truth_value_judgements,most
6709,,3688,33,,true,Higher Degree,1552737584750,42,female,English,true,false,5bfd5da11fe1e50001406bd5,Most people know more than one language.,true,4,Sat Mar 16 2019 11:55:10 GMT+0000 (Greenwich Mean Time),1552737310211,4.57565,25,truth_value_judgements,most
6709,,3610,33,,bizarre,Higher Degree,1552737584750,42,female,English,true,false,5bfd5da11fe1e50001406bd5,Some stores are made of bubbles.,false,4,Sat Mar 16 2019 11:55:10 GMT+0000 (Greenwich Mean Time),1552737310211,4.57565,26,truth_value_judgements,some
6709,,2585,33,,implicature,Higher Degree,1552737584750,42,female,English,true,false,5bfd5da11fe1e50001406bd5,Monkeys have three bones.,false,5,Sat Mar 16 2019 11:55:10 GMT+0000 (Greenwich Mean Time),1552737310211,4.57565,27,truth_value_judgements,number
6709,,2881,33,,true,Higher Degree,1552737584750,42,female,English,true,false,5bfd5da11fe1e50001406bd5,All eagles are birds.,true,8,Sat Mar 16 2019 11:55:10 GMT+0000 (Greenwich Mean Time),1552737310211,4.57565,28,truth_value_judgements,all
6709,,2944,33,,true,Higher Degree,1552737584750,42,female,English,true,false,5bfd5da11fe1e50001406bd5,Cats have four legs.,true,4,Sat Mar 16 2019 11:55:10 GMT+0000 (Greenwich Mean Time),1552737310211,4.57565,29,truth_value_judgements,number
6709,,2560,33,,implicature,Higher Degree,1552737584750,42,female,English,true,false,5bfd5da11fe1e50001406bd5,Most elephants are mammals.,true,5,Sat Mar 16 2019 11:55:10 GMT+0000 (Greenwich Mean Time),1552737310211,4.57565,30,truth_value_judgements,most
6709,,2622,33,,implicature,Higher Degree,1552737584750,42,female,English,true,false,5bfd5da11fe1e50001406bd5,Some ants are insects.,true,4,Sat Mar 16 2019 11:55:10 GMT+0000 (Greenwich Mean Time),1552737310211,4.57565,31,truth_value_judgements,some
6709,,2816,33,,implicature,Higher Degree,1552737584750,42,female,English,true,false,5bfd5da11fe1e50001406bd5,The universe contains three planets.,false,3,Sat Mar 16 2019 11:55:10 GMT+0000 (Greenwich Mean Time),1552737310211,4.57565,32,truth_value_judgements,number
6709,,4405,33,,implicature,Higher Degree,1552737584750,42,female,English,true,false,5bfd5da11fe1e50001406bd5,A year has 245 days.,false,4,Sat Mar 16 2019 11:55:10 GMT+0000 (Greenwich Mean Time),1552737310211,4.57565,33,truth_value_judgements,number
6709,,2420,33,,bizarre,Higher Degree,1552737584750,42,female,English,true,false,5bfd5da11fe1e50001406bd5,Most tigers are literate.,false,5,Sat Mar 16 2019 11:55:10 GMT+0000 (Greenwich Mean Time),1552737310211,4.57565,34,truth_value_judgements,most
6709,,3123,33,,bizarre,Higher Degree,1552737584750,42,female,English,true,false,5bfd5da11fe1e50001406bd5,Most chairs are hungry.,false,2,Sat Mar 16 2019 11:55:10 GMT+0000 (Greenwich Mean Time),1552737310211,4.57565,35,truth_value_judgements,most
6709,,3528,33,,true,Higher Degree,1552737584750,42,female,English,true,false,5bfd5da11fe1e50001406bd5,Most days in a year are working days.,true,3,Sat Mar 16 2019 11:55:10 GMT+0000 (Greenwich Mean Time),1552737310211,4.57565,36,truth_value_judgements,most
6709,,3639,33,,bizarre,Higher Degree,1552737584750,42,female,English,true,false,5bfd5da11fe1e50001406bd5,Most sofas are friendly.,false,4,Sat Mar 16 2019 11:55:10 GMT+0000 (Greenwich Mean Time),1552737310211,4.57565,37,truth_value_judgements,most
6709,,2850,33,,implicature,Higher Degree,1552737584750,42,female,English,true,false,5bfd5da11fe1e50001406bd5,Most snakes are reptiles.,true,3,Sat Mar 16 2019 11:55:10 GMT+0000 (Greenwich Mean Time),1552737310211,4.57565,38,truth_value_judgements,most
6709,,5758,33,,bizarre,Higher Degree,1552737584750,42,female,English,true,false,5bfd5da11fe1e50001406bd5,The earth owns seven books.,false,5,Sat Mar 16 2019 11:55:10 GMT+0000 (Greenwich Mean Time),1552737310211,4.57565,39,truth_value_judgements,number
6709,,1944,33,,true,Higher Degree,1552737584750,42,female,English,true,false,5bfd5da11fe1e50001406bd5,All books have pages.,false,1,Sat Mar 16 2019 11:55:10 GMT+0000 (Greenwich Mean Time),1552737310211,4.57565,40,truth_value_judgements,all
6709,,2045,33,,true,Higher Degree,1552737584750,42,female,English,true,false,5bfd5da11fe1e50001406bd5,All dogs are mammals.,false,9,Sat Mar 16 2019 11:55:10 GMT+0000 (Greenwich Mean Time),1552737310211,4.57565,41,truth_value_judgements,all
6709,,2803,33,,true,Higher Degree,1552737584750,42,female,English,true,false,5bfd5da11fe1e50001406bd5,All crocodiles are reptiles.,true,7,Sat Mar 16 2019 11:55:10 GMT+0000 (Greenwich Mean Time),1552737310211,4.57565,42,truth_value_judgements,all
6709,,2570,33,,true,Higher Degree,1552737584750,42,female,English,true,false,5bfd5da11fe1e50001406bd5,Some tools are made of wood..,true,3,Sat Mar 16 2019 11:55:10 GMT+0000 (Greenwich Mean Time),1552737310211,4.57565,43,truth_value_judgements,some
6709,,3700,33,,bizarre,Higher Degree,1552737584750,42,female,English,true,false,5bfd5da11fe1e50001406bd5,A week consists of five people.,false,4,Sat Mar 16 2019 11:55:10 GMT+0000 (Greenwich Mean Time),1552737310211,4.57565,44,truth_value_judgements,number
6709,,2825,33,,bizarre,Higher Degree,1552737584750,42,female,English,true,false,5bfd5da11fe1e50001406bd5,All birds have telephones.,false,1,Sat Mar 16 2019 11:55:10 GMT+0000 (Greenwich Mean Time),1552737310211,4.57565,45,truth_value_judgements,all
6709,,2861,33,,implicature,Higher Degree,1552737584750,42,female,English,true,false,5bfd5da11fe1e50001406bd5,A human hand has two fingers.,false,2,Sat Mar 16 2019 11:55:10 GMT+0000 (Greenwich Mean Time),1552737310211,4.57565,46,truth_value_judgements,number
6709,,2239,33,,true,Higher Degree,1552737584750,42,female,English,true,false,5bfd5da11fe1e50001406bd5,All elephants have trunks.,true,4,Sat Mar 16 2019 11:55:10 GMT+0000 (Greenwich Mean Time),1552737310211,4.57565,47,truth_value_judgements,all
6709,,2083,33,,bizarre,Higher Degree,1552737584750,42,female,English,true,false,5bfd5da11fe1e50001406bd5,Most elephants have glasses.,false,1,Sat Mar 16 2019 11:55:10 GMT+0000 (Greenwich Mean Time),1552737310211,4.57565,48,truth_value_judgements,most
6709,,5203,33,,implicature,Higher Degree,1552737584750,42,female,English,true,false,5bfd5da11fe1e50001406bd5,Most sharks are fish.,false,1,Sat Mar 16 2019 11:55:10 GMT+0000 (Greenwich Mean Time),1552737310211,4.57565,49,truth_value_judgements,most
6709,,2519,33,,bizarre,Higher Degree,1552737584750,42,female,English,true,false,5bfd5da11fe1e50001406bd5,All chairs tell time.,false,3,Sat Mar 16 2019 11:55:10 GMT+0000 (Greenwich Mean Time),1552737310211,4.57565,50,truth_value_judgements,all
6709,,3810,33,,true,Higher Degree,1552737584750,42,female,English,true,false,5bfd5da11fe1e50001406bd5,All beetles are insects.,true,10,Sat Mar 16 2019 11:55:10 GMT+0000 (Greenwich Mean Time),1552737310211,4.57565,51,truth_value_judgements,all
6709,,4876,33,,true,Higher Degree,1552737584750,42,female,English,true,false,5bfd5da11fe1e50001406bd5,Most people know their parents.,true,1,Sat Mar 16 2019 11:55:10 GMT+0000 (Greenwich Mean Time),1552737310211,4.57565,52,truth_value_judgements,most
6709,,2626,33,,implicature,Higher Degree,1552737584750,42,female,English,true,false,5bfd5da11fe1e50001406bd5,Some lizards are reptiles.,true,2,Sat Mar 16 2019 11:55:10 GMT+0000 (Greenwich Mean Time),1552737310211,4.57565,53,truth_value_judgements,some
6709,,2152,33,,bizarre,Higher Degree,1552737584750,42,female,English,true,false,5bfd5da11fe1e50001406bd5,Guitars have four legs.,false,2,Sat Mar 16 2019 11:55:10 GMT+0000 (Greenwich Mean Time),1552737310211,4.57565,54,truth_value_judgements,number
6709,,2521,33,,implicature,Higher Degree,1552737584750,42,female,English,true,false,5bfd5da11fe1e50001406bd5,Most pigeons are birds.,true,4,Sat Mar 16 2019 11:55:10 GMT+0000 (Greenwich Mean Time),1552737310211,4.57565,55,truth_value_judgements,most
6709,,2482,33,,bizarre,Higher Degree,1552737584750,42,female,English,true,false,5bfd5da11fe1e50001406bd5,Some fruits have computers.,false,2,Sat Mar 16 2019 11:55:10 GMT+0000 (Greenwich Mean Time),1552737310211,4.57565,56,truth_value_judgements,some
6709,,2262,33,,bizarre,Higher Degree,1552737584750,42,female,English,true,false,5bfd5da11fe1e50001406bd5,All crayons have noses.,false,2,Sat Mar 16 2019 11:55:10 GMT+0000 (Greenwich Mean Time),1552737310211,4.57565,57,truth_value_judgements,all
6709,,5592,33,,bizarre,Higher Degree,1552737584750,42,female,English,true,false,5bfd5da11fe1e50001406bd5,Forests last three nights.,false,3,Sat Mar 16 2019 11:55:10 GMT+0000 (Greenwich Mean Time),1552737310211,4.57565,58,truth_value_judgements,number
6709,,3033,33,,true,Higher Degree,1552737584750,42,female,English,true,false,5bfd5da11fe1e50001406bd5,Some flowers are yellow.,true,1,Sat Mar 16 2019 11:55:10 GMT+0000 (Greenwich Mean Time),1552737310211,4.57565,59,truth_value_judgements,some
6709,,3128,33,,implicature,Higher Degree,1552737584750,42,female,English,true,false,5bfd5da11fe1e50001406bd5,Some owls are birds.,true,3,Sat Mar 16 2019 11:55:10 GMT+0000 (Greenwich Mean Time),1552737310211,4.57565,60,truth_value_judgements,some
6708,,2912,38,,true,Graduated High School,1552737546444,42,male,English,true,false,5c0f620b4324e80001c94563,A week has seven days.,true,3,Sat Mar 16 2019 07:54:14 GMT-0400 (Eastern Daylight Time),1552737254237,4.870116666666667,1,truth_value_judgements,number
6708,,6336,38,,implicature,Graduated High School,1552737546444,42,male,English,true,false,5c0f620b4324e80001c94563,Most horses are mammals.,false,2,Sat Mar 16 2019 07:54:14 GMT-0400 (Eastern Daylight Time),1552737254237,4.870116666666667,2,truth_value_judgements,most
6708,,3067,38,,true,Graduated High School,1552737546444,42,male,English,true,false,5c0f620b4324e80001c94563,All hammers have a handle.,false,2,Sat Mar 16 2019 07:54:14 GMT-0400 (Eastern Daylight Time),1552737254237,4.870116666666667,3,truth_value_judgements,all
6708,,7067,38,,bizarre,Graduated High School,1552737546444,42,male,English,true,false,5c0f620b4324e80001c94563,All couches have windows.,false,5,Sat Mar 16 2019 07:54:14 GMT-0400 (Eastern Daylight Time),1552737254237,4.870116666666667,4,truth_value_judgements,all
6708,,2548,38,,implicature,Graduated High School,1552737546444,42,male,English,true,false,5c0f620b4324e80001c94563,Some lizards are reptiles.,true,2,Sat Mar 16 2019 07:54:14 GMT-0400 (Eastern Daylight Time),1552737254237,4.870116666666667,5,truth_value_judgements,some
6708,,8050,38,,true,Graduated High School,1552737546444,42,male,English,true,false,5c0f620b4324e80001c94563,All refrigerators have doors.,false,5,Sat Mar 16 2019 07:54:14 GMT-0400 (Eastern Daylight Time),1552737254237,4.870116666666667,6,truth_value_judgements,all
6708,,3123,38,,implicature,Graduated High School,1552737546444,42,male,English,true,false,5c0f620b4324e80001c94563,Most pigeons are birds.,true,4,Sat Mar 16 2019 07:54:14 GMT-0400 (Eastern Daylight Time),1552737254237,4.870116666666667,7,truth_value_judgements,most
6708,,2274,38,,implicature,Graduated High School,1552737546444,42,male,English,true,false,5c0f620b4324e80001c94563,Some trouts are fish.,true,1,Sat Mar 16 2019 07:54:14 GMT-0400 (Eastern Daylight Time),1552737254237,4.870116666666667,8,truth_value_judgements,some
6708,,1735,38,,true,Graduated High School,1552737546444,42,male,English,true,false,5c0f620b4324e80001c94563,Most birds can fly.,true,2,Sat Mar 16 2019 07:54:14 GMT-0400 (Eastern Daylight Time),1552737254237,4.870116666666667,9,truth_value_judgements,most
6708,,6388,38,,bizarre,Graduated High School,1552737546444,42,male,English,true,false,5c0f620b4324e80001c94563,The earth owns seven books.,true,5,Sat Mar 16 2019 07:54:14 GMT-0400 (Eastern Daylight Time),1552737254237,4.870116666666667,10,truth_value_judgements,number
6708,,3000,38,,true,Graduated High School,1552737546444,42,male,English,true,false,5c0f620b4324e80001c94563,Monkeys have five fingers on each hand.,true,2,Sat Mar 16 2019 07:54:14 GMT-0400 (Eastern Daylight Time),1552737254237,4.870116666666667,11,truth_value_judgements,number
6708,,3061,38,,true,Graduated High School,1552737546444,42,male,English,true,false,5c0f620b4324e80001c94563,Most horses are tame.,false,5,Sat Mar 16 2019 07:54:14 GMT-0400 (Eastern Daylight Time),1552737254237,4.870116666666667,12,truth_value_judgements,most
6708,,2248,38,,true,Graduated High School,1552737546444,42,male,English,true,false,5c0f620b4324e80001c94563,Some tools are made of wood..,true,3,Sat Mar 16 2019 07:54:14 GMT-0400 (Eastern Daylight Time),1552737254237,4.870116666666667,13,truth_value_judgements,some
6708,,3151,38,,bizarre,Graduated High School,1552737546444,42,male,English,true,false,5c0f620b4324e80001c94563,Most tigers are literate.,true,5,Sat Mar 16 2019 07:54:14 GMT-0400 (Eastern Daylight Time),1552737254237,4.870116666666667,14,truth_value_judgements,most
6708,,3988,38,,bizarre,Graduated High School,1552737546444,42,male,English,true,false,5c0f620b4324e80001c94563,Most sofas are friendly.,false,4,Sat Mar 16 2019 07:54:14 GMT-0400 (Eastern Daylight Time),1552737254237,4.870116666666667,15,truth_value_judgements,most
6708,,3520,38,,implicature,Graduated High School,1552737546444,42,male,English,true,false,5c0f620b4324e80001c94563,Most elephants are mammals.,true,5,Sat Mar 16 2019 07:54:14 GMT-0400 (Eastern Daylight Time),1552737254237,4.870116666666667,16,truth_value_judgements,most
6708,,2361,38,,true,Graduated High School,1552737546444,42,male,English,true,false,5c0f620b4324e80001c94563,Most people know their parents.,true,1,Sat Mar 16 2019 07:54:14 GMT-0400 (Eastern Daylight Time),1552737254237,4.870116666666667,17,truth_value_judgements,most
6708,,3951,38,,implicature,Graduated High School,1552737546444,42,male,English,true,false,5c0f620b4324e80001c94563,Monkeys have three bones.,false,5,Sat Mar 16 2019 07:54:14 GMT-0400 (Eastern Daylight Time),1552737254237,4.870116666666667,18,truth_value_judgements,number
6708,,2037,38,,true,Graduated High School,1552737546444,42,male,English,true,false,5c0f620b4324e80001c94563,All dogs are mammals.,false,9,Sat Mar 16 2019 07:54:14 GMT-0400 (Eastern Daylight Time),1552737254237,4.870116666666667,19,truth_value_judgements,all
6708,,2900,38,,true,Graduated High School,1552737546444,42,male,English,true,false,5c0f620b4324e80001c94563,Humans have two eyes.,true,5,Sat Mar 16 2019 07:54:14 GMT-0400 (Eastern Daylight Time),1552737254237,4.870116666666667,20,truth_value_judgements,number
6708,,1863,38,,bizarre,Graduated High School,1552737546444,42,male,English,true,false,5c0f620b4324e80001c94563,All birds have telephones.,false,1,Sat Mar 16 2019 07:54:14 GMT-0400 (Eastern Daylight Time),1552737254237,4.870116666666667,21,truth_value_judgements,all
6708,,4136,38,,true,Graduated High School,1552737546444,42,male,English,true,false,5c0f620b4324e80001c94563,All salmon are fish.,true,6,Sat Mar 16 2019 07:54:14 GMT-0400 (Eastern Daylight Time),1552737254237,4.870116666666667,22,truth_value_judgements,all
6708,,2526,38,,implicature,Graduated High School,1552737546444,42,male,English,true,false,5c0f620b4324e80001c94563,Most snakes are reptiles.,true,3,Sat Mar 16 2019 07:54:14 GMT-0400 (Eastern Daylight Time),1552737254237,4.870116666666667,23,truth_value_judgements,most
6708,,5360,38,,true,Graduated High School,1552737546444,42,male,English,true,false,5c0f620b4324e80001c94563,Most people know more than one language.,true,4,Sat Mar 16 2019 07:54:14 GMT-0400 (Eastern Daylight Time),1552737254237,4.870116666666667,24,truth_value_judgements,most
6708,,2863,38,,implicature,Graduated High School,1552737546444,42,male,English,true,false,5c0f620b4324e80001c94563,Some cats are mammals.,false,5,Sat Mar 16 2019 07:54:14 GMT-0400 (Eastern Daylight Time),1552737254237,4.870116666666667,25,truth_value_judgements,some
6708,,3048,38,,bizarre,Graduated High School,1552737546444,42,male,English,true,false,5c0f620b4324e80001c94563,All chairs tell time.,false,3,Sat Mar 16 2019 07:54:14 GMT-0400 (Eastern Daylight Time),1552737254237,4.870116666666667,26,truth_value_judgements,all
6708,,4312,38,,bizarre,Graduated High School,1552737546444,42,male,English,true,false,5c0f620b4324e80001c94563,Some stores are made of bubbles.,true,4,Sat Mar 16 2019 07:54:14 GMT-0400 (Eastern Daylight Time),1552737254237,4.870116666666667,27,truth_value_judgements,some
6708,,2436,38,,bizarre,Graduated High School,1552737546444,42,male,English,true,false,5c0f620b4324e80001c94563,All crayons have noses.,false,2,Sat Mar 16 2019 07:54:14 GMT-0400 (Eastern Daylight Time),1552737254237,4.870116666666667,28,truth_value_judgements,all
6708,,3637,38,,bizarre,Graduated High School,1552737546444,42,male,English,true,false,5c0f620b4324e80001c94563,Guitars have four legs.,false,2,Sat Mar 16 2019 07:54:14 GMT-0400 (Eastern Daylight Time),1552737254237,4.870116666666667,29,truth_value_judgements,number
6708,,2586,38,,true,Graduated High School,1552737546444,42,male,English,true,false,5c0f620b4324e80001c94563,Some children are blond.,true,4,Sat Mar 16 2019 07:54:14 GMT-0400 (Eastern Daylight Time),1552737254237,4.870116666666667,30,truth_value_judgements,some
6708,,3511,38,,true,Graduated High School,1552737546444,42,male,English,true,false,5c0f620b4324e80001c94563,Most days in a year are working days.,true,3,Sat Mar 16 2019 07:54:14 GMT-0400 (Eastern Daylight Time),1552737254237,4.870116666666667,31,truth_value_judgements,most
6708,,1723,38,,true,Graduated High School,1552737546444,42,male,English,true,false,5c0f620b4324e80001c94563,Some flowers are yellow.,true,1,Sat Mar 16 2019 07:54:14 GMT-0400 (Eastern Daylight Time),1552737254237,4.870116666666667,32,truth_value_judgements,some
6708,,1926,38,,implicature,Graduated High School,1552737546444,42,male,English,true,false,5c0f620b4324e80001c94563,Some ants are insects.,true,4,Sat Mar 16 2019 07:54:14 GMT-0400 (Eastern Daylight Time),1552737254237,4.870116666666667,33,truth_value_judgements,some
6708,,6237,38,,true,Graduated High School,1552737546444,42,male,English,true,false,5c0f620b4324e80001c94563,All eagles are birds.,true,8,Sat Mar 16 2019 07:54:14 GMT-0400 (Eastern Daylight Time),1552737254237,4.870116666666667,34,truth_value_judgements,all
6708,,4341,38,,bizarre,Graduated High School,1552737546444,42,male,English,true,false,5c0f620b4324e80001c94563,Some fish are made of leaves.,false,1,Sat Mar 16 2019 07:54:14 GMT-0400 (Eastern Daylight Time),1552737254237,4.870116666666667,35,truth_value_judgements,some
6708,,3958,38,,true,Graduated High School,1552737546444,42,male,English,true,false,5c0f620b4324e80001c94563,All books have pages.,false,1,Sat Mar 16 2019 07:54:14 GMT-0400 (Eastern Daylight Time),1552737254237,4.870116666666667,36,truth_value_judgements,all
6708,,4149,38,,true,Graduated High School,1552737546444,42,male,English,true,false,5c0f620b4324e80001c94563,All crocodiles are reptiles.,true,7,Sat Mar 16 2019 07:54:14 GMT-0400 (Eastern Daylight Time),1552737254237,4.870116666666667,37,truth_value_judgements,all
6708,,2713,38,,bizarre,Graduated High School,1552737546444,42,male,English,true,false,5c0f620b4324e80001c94563,All garages sing.,false,4,Sat Mar 16 2019 07:54:14 GMT-0400 (Eastern Daylight Time),1552737254237,4.870116666666667,38,truth_value_judgements,all
6708,,4088,38,,implicature,Graduated High School,1552737546444,42,male,English,true,false,5c0f620b4324e80001c94563,A human hand has two fingers.,false,2,Sat Mar 16 2019 07:54:14 GMT-0400 (Eastern Daylight Time),1552737254237,4.870116666666667,39,truth_value_judgements,number
6708,,4545,38,,bizarre,Graduated High School,1552737546444,42,male,English,true,false,5c0f620b4324e80001c94563,Some children are made of feathers.,false,5,Sat Mar 16 2019 07:54:14 GMT-0400 (Eastern Daylight Time),1552737254237,4.870116666666667,40,truth_value_judgements,some
6708,,1854,38,,implicature,Graduated High School,1552737546444,42,male,English,true,false,5c0f620b4324e80001c94563,A year has 245 days.,false,4,Sat Mar 16 2019 07:54:14 GMT-0400 (Eastern Daylight Time),1552737254237,4.870116666666667,41,truth_value_judgements,number
6708,,2213,38,,bizarre,Graduated High School,1552737546444,42,male,English,true,false,5c0f620b4324e80001c94563,A week consists of five people.,false,4,Sat Mar 16 2019 07:54:14 GMT-0400 (Eastern Daylight Time),1552737254237,4.870116666666667,42,truth_value_judgements,number
6708,,7099,38,,implicature,Graduated High School,1552737546444,42,male,English,true,false,5c0f620b4324e80001c94563,Most sharks are fish.,true,1,Sat Mar 16 2019 07:54:14 GMT-0400 (Eastern Daylight Time),1552737254237,4.870116666666667,43,truth_value_judgements,most
6708,,1949,38,,true,Graduated High School,1552737546444,42,male,English,true,false,5c0f620b4324e80001c94563,A normal motorcycle has two wheels.,true,1,Sat Mar 16 2019 07:54:14 GMT-0400 (Eastern Daylight Time),1552737254237,4.870116666666667,44,truth_value_judgements,number
6708,,3964,38,,true,Graduated High School,1552737546444,42,male,English,true,false,5c0f620b4324e80001c94563,All beetles are insects.,true,10,Sat Mar 16 2019 07:54:14 GMT-0400 (Eastern Daylight Time),1552737254237,4.870116666666667,45,truth_value_judgements,all
6708,,4814,38,,bizarre,Graduated High School,1552737546444,42,male,English,true,false,5c0f620b4324e80001c94563,Forests last three nights.,false,3,Sat Mar 16 2019 07:54:14 GMT-0400 (Eastern Daylight Time),1552737254237,4.870116666666667,46,truth_value_judgements,number
6708,,2782,38,,implicature,Graduated High School,1552737546444,42,male,English,true,false,5c0f620b4324e80001c94563,Some owls are birds.,true,3,Sat Mar 16 2019 07:54:14 GMT-0400 (Eastern Daylight Time),1552737254237,4.870116666666667,47,truth_value_judgements,some
6708,,4037,38,,true,Graduated High School,1552737546444,42,male,English,true,false,5c0f620b4324e80001c94563,All robins have wings.,false,3,Sat Mar 16 2019 07:54:14 GMT-0400 (Eastern Daylight Time),1552737254237,4.870116666666667,48,truth_value_judgements,all
6708,,3024,38,,bizarre,Graduated High School,1552737546444,42,male,English,true,false,5c0f620b4324e80001c94563,Most chairs are hungry.,false,2,Sat Mar 16 2019 07:54:14 GMT-0400 (Eastern Daylight Time),1552737254237,4.870116666666667,49,truth_value_judgements,most
6708,,2749,38,,true,Graduated High School,1552737546444,42,male,English,true,false,5c0f620b4324e80001c94563,All elephants have trunks.,true,4,Sat Mar 16 2019 07:54:14 GMT-0400 (Eastern Daylight Time),1552737254237,4.870116666666667,50,truth_value_judgements,all
6708,,5829,38,,implicature,Graduated High School,1552737546444,42,male,English,true,false,5c0f620b4324e80001c94563,The universe contains three planets.,false,3,Sat Mar 16 2019 07:54:14 GMT-0400 (Eastern Daylight Time),1552737254237,4.870116666666667,51,truth_value_judgements,number
6708,,2210,38,,true,Graduated High School,1552737546444,42,male,English,true,false,5c0f620b4324e80001c94563,Cats have four legs.,true,4,Sat Mar 16 2019 07:54:14 GMT-0400 (Eastern Daylight Time),1552737254237,4.870116666666667,52,truth_value_judgements,number
6708,,4662,38,,implicature,Graduated High School,1552737546444,42,male,English,true,false,5c0f620b4324e80001c94563,Modern cars have three wheels.,false,1,Sat Mar 16 2019 07:54:14 GMT-0400 (Eastern Daylight Time),1552737254237,4.870116666666667,53,truth_value_judgements,number
6708,,6664,38,,bizarre,Graduated High School,1552737546444,42,male,English,true,false,5c0f620b4324e80001c94563,Some books are good to eat.,false,3,Sat Mar 16 2019 07:54:14 GMT-0400 (Eastern Daylight Time),1552737254237,4.870116666666667,54,truth_value_judgements,some
6708,,3348,38,,bizarre,Graduated High School,1552737546444,42,male,English,true,false,5c0f620b4324e80001c94563,Most motorcycles like music.,false,3,Sat Mar 16 2019 07:54:14 GMT-0400 (Eastern Daylight Time),1552737254237,4.870116666666667,55,truth_value_judgements,most
6708,,2864,38,,true,Graduated High School,1552737546444,42,male,English,true,false,5c0f620b4324e80001c94563,Some dresses have pockets.,true,2,Sat Mar 16 2019 07:54:14 GMT-0400 (Eastern Daylight Time),1552737254237,4.870116666666667,56,truth_value_judgements,some
6708,,3286,38,,bizarre,Graduated High School,1552737546444,42,male,English,true,false,5c0f620b4324e80001c94563,Some fruits have computers.,false,2,Sat Mar 16 2019 07:54:14 GMT-0400 (Eastern Daylight Time),1552737254237,4.870116666666667,57,truth_value_judgements,some
6708,,2550,38,,true,Graduated High School,1552737546444,42,male,English,true,false,5c0f620b4324e80001c94563,Some drinks are made from chocolate.,true,5,Sat Mar 16 2019 07:54:14 GMT-0400 (Eastern Daylight Time),1552737254237,4.870116666666667,58,truth_value_judgements,some
6708,,1992,38,,bizarre,Graduated High School,1552737546444,42,male,English,true,false,5c0f620b4324e80001c94563,The moon has two ears.,false,1,Sat Mar 16 2019 07:54:14 GMT-0400 (Eastern Daylight Time),1552737254237,4.870116666666667,59,truth_value_judgements,number
6708,,1895,38,,bizarre,Graduated High School,1552737546444,42,male,English,true,false,5c0f620b4324e80001c94563,Most elephants have glasses.,false,1,Sat Mar 16 2019 07:54:14 GMT-0400 (Eastern Daylight Time),1552737254237,4.870116666666667,60,truth_value_judgements,most
6707,,2546,28,,true,Graduated College,1552737532714,42,female,English,true,false,5c8c97666ca70b001512878b,Some tools are made of wood..,true,3,Sat Mar 16 2019 11:54:45 GMT+0000 (GMT),1552737285124,4.1265,1,truth_value_judgements,some
6707,,1629,28,,bizarre,Graduated College,1552737532714,42,female,English,true,false,5c8c97666ca70b001512878b,All birds have telephones.,false,1,Sat Mar 16 2019 11:54:45 GMT+0000 (GMT),1552737285124,4.1265,2,truth_value_judgements,all
6707,,3515,28,,true,Graduated College,1552737532714,42,female,English,true,false,5c8c97666ca70b001512878b,All refrigerators have doors.,true,5,Sat Mar 16 2019 11:54:45 GMT+0000 (GMT),1552737285124,4.1265,3,truth_value_judgements,all
6707,,3649,28,,implicature,Graduated College,1552737532714,42,female,English,true,false,5c8c97666ca70b001512878b,Some ants are insects.,false,4,Sat Mar 16 2019 11:54:45 GMT+0000 (GMT),1552737285124,4.1265,4,truth_value_judgements,some
6707,,2118,28,,bizarre,Graduated College,1552737532714,42,female,English,true,false,5c8c97666ca70b001512878b,Most chairs are hungry.,false,2,Sat Mar 16 2019 11:54:45 GMT+0000 (GMT),1552737285124,4.1265,5,truth_value_judgements,most
6707,,2630,28,,bizarre,Graduated College,1552737532714,42,female,English,true,false,5c8c97666ca70b001512878b,Most sofas are friendly.,false,4,Sat Mar 16 2019 11:54:45 GMT+0000 (GMT),1552737285124,4.1265,6,truth_value_judgements,most
6707,,1812,28,,true,Graduated College,1552737532714,42,female,English,true,false,5c8c97666ca70b001512878b,All elephants have trunks.,true,4,Sat Mar 16 2019 11:54:45 GMT+0000 (GMT),1552737285124,4.1265,7,truth_value_judgements,all
6707,,2805,28,,implicature,Graduated College,1552737532714,42,female,English,true,false,5c8c97666ca70b001512878b,A human hand has two fingers.,false,2,Sat Mar 16 2019 11:54:45 GMT+0000 (GMT),1552737285124,4.1265,8,truth_value_judgements,number
6707,,2128,28,,bizarre,Graduated College,1552737532714,42,female,English,true,false,5c8c97666ca70b001512878b,Some children are made of feathers.,false,5,Sat Mar 16 2019 11:54:45 GMT+0000 (GMT),1552737285124,4.1265,9,truth_value_judgements,some
6707,,1769,28,,true,Graduated College,1552737532714,42,female,English,true,false,5c8c97666ca70b001512878b,All crocodiles are reptiles.,true,7,Sat Mar 16 2019 11:54:45 GMT+0000 (GMT),1552737285124,4.1265,10,truth_value_judgements,all
6707,,1798,28,,implicature,Graduated College,1552737532714,42,female,English,true,false,5c8c97666ca70b001512878b,Some cats are mammals.,false,5,Sat Mar 16 2019 11:54:45 GMT+0000 (GMT),1552737285124,4.1265,11,truth_value_judgements,some
6707,,1943,28,,true,Graduated College,1552737532714,42,female,English,true,false,5c8c97666ca70b001512878b,Some flowers are yellow.,true,1,Sat Mar 16 2019 11:54:45 GMT+0000 (GMT),1552737285124,4.1265,12,truth_value_judgements,some
6707,,1666,28,,bizarre,Graduated College,1552737532714,42,female,English,true,false,5c8c97666ca70b001512878b,All crayons have noses.,false,2,Sat Mar 16 2019 11:54:45 GMT+0000 (GMT),1552737285124,4.1265,13,truth_value_judgements,all
6707,,1717,28,,true,Graduated College,1552737532714,42,female,English,true,false,5c8c97666ca70b001512878b,Some children are blond.,true,4,Sat Mar 16 2019 11:54:45 GMT+0000 (GMT),1552737285124,4.1265,14,truth_value_judgements,some
6707,,1599,28,,implicature,Graduated College,1552737532714,42,female,English,true,false,5c8c97666ca70b001512878b,Some trouts are fish.,false,1,Sat Mar 16 2019 11:54:45 GMT+0000 (GMT),1552737285124,4.1265,15,truth_value_judgements,some
6707,,1346,28,,true,Graduated College,1552737532714,42,female,English,true,false,5c8c97666ca70b001512878b,All salmon are fish.,true,6,Sat Mar 16 2019 11:54:45 GMT+0000 (GMT),1552737285124,4.1265,16,truth_value_judgements,all
6707,,2206,28,,implicature,Graduated College,1552737532714,42,female,English,true,false,5c8c97666ca70b001512878b,Most pigeons are birds.,false,4,Sat Mar 16 2019 11:54:45 GMT+0000 (GMT),1552737285124,4.1265,17,truth_value_judgements,most
6707,,2649,28,,bizarre,Graduated College,1552737532714,42,female,English,true,false,5c8c97666ca70b001512878b,Some stores are made of bubbles.,false,4,Sat Mar 16 2019 11:54:45 GMT+0000 (GMT),1552737285124,4.1265,18,truth_value_judgements,some
6707,,1343,28,,bizarre,Graduated College,1552737532714,42,female,English,true,false,5c8c97666ca70b001512878b,Most elephants have glasses.,false,1,Sat Mar 16 2019 11:54:45 GMT+0000 (GMT),1552737285124,4.1265,19,truth_value_judgements,most
6707,,1795,28,,implicature,Graduated College,1552737532714,42,female,English,true,false,5c8c97666ca70b001512878b,Most elephants are mammals.,false,5,Sat Mar 16 2019 11:54:45 GMT+0000 (GMT),1552737285124,4.1265,20,truth_value_judgements,most
6707,,1583,28,,bizarre,Graduated College,1552737532714,42,female,English,true,false,5c8c97666ca70b001512878b,All garages sing.,false,4,Sat Mar 16 2019 11:54:45 GMT+0000 (GMT),1552737285124,4.1265,21,truth_value_judgements,all
6707,,1517,28,,true,Graduated College,1552737532714,42,female,English,true,false,5c8c97666ca70b001512878b,Humans have two eyes.,true,5,Sat Mar 16 2019 11:54:45 GMT+0000 (GMT),1552737285124,4.1265,22,truth_value_judgements,number
6707,,1550,28,,implicature,Graduated College,1552737532714,42,female,English,true,false,5c8c97666ca70b001512878b,Some owls are birds.,false,3,Sat Mar 16 2019 11:54:45 GMT+0000 (GMT),1552737285124,4.1265,23,truth_value_judgements,some
6707,,1667,28,,bizarre,Graduated College,1552737532714,42,female,English,true,false,5c8c97666ca70b001512878b,Some fish are made of leaves.,false,1,Sat Mar 16 2019 11:54:45 GMT+0000 (GMT),1552737285124,4.1265,24,truth_value_judgements,some
6707,,1780,28,,implicature,Graduated College,1552737532714,42,female,English,true,false,5c8c97666ca70b001512878b,The universe contains three planets.,false,3,Sat Mar 16 2019 11:54:45 GMT+0000 (GMT),1552737285124,4.1265,25,truth_value_judgements,number
6707,,4598,28,,true,Graduated College,1552737532714,42,female,English,true,false,5c8c97666ca70b001512878b,Most days in a year are working days.,true,3,Sat Mar 16 2019 11:54:45 GMT+0000 (GMT),1552737285124,4.1265,26,truth_value_judgements,most
6707,,1629,28,,bizarre,Graduated College,1552737532714,42,female,English,true,false,5c8c97666ca70b001512878b,Most motorcycles like music.,false,3,Sat Mar 16 2019 11:54:45 GMT+0000 (GMT),1552737285124,4.1265,27,truth_value_judgements,most
6707,,1316,28,,bizarre,Graduated College,1552737532714,42,female,English,true,false,5c8c97666ca70b001512878b,The moon has two ears.,false,1,Sat Mar 16 2019 11:54:45 GMT+0000 (GMT),1552737285124,4.1265,28,truth_value_judgements,number
6707,,1733,28,,true,Graduated College,1552737532714,42,female,English,true,false,5c8c97666ca70b001512878b,Most people know their parents.,true,1,Sat Mar 16 2019 11:54:45 GMT+0000 (GMT),1552737285124,4.1265,29,truth_value_judgements,most
6707,,2101,28,,true,Graduated College,1552737532714,42,female,English,true,false,5c8c97666ca70b001512878b,A week has seven days.,true,3,Sat Mar 16 2019 11:54:45 GMT+0000 (GMT),1552737285124,4.1265,30,truth_value_judgements,number
6707,,1462,28,,bizarre,Graduated College,1552737532714,42,female,English,true,false,5c8c97666ca70b001512878b,Most tigers are literate.,false,5,Sat Mar 16 2019 11:54:45 GMT+0000 (GMT),1552737285124,4.1265,31,truth_value_judgements,most
6707,,2134,28,,bizarre,Graduated College,1552737532714,42,female,English,true,false,5c8c97666ca70b001512878b,A week consists of five people.,false,4,Sat Mar 16 2019 11:54:45 GMT+0000 (GMT),1552737285124,4.1265,32,truth_value_judgements,number
6707,,2081,28,,implicature,Graduated College,1552737532714,42,female,English,true,false,5c8c97666ca70b001512878b,Modern cars have three wheels.,false,1,Sat Mar 16 2019 11:54:45 GMT+0000 (GMT),1552737285124,4.1265,33,truth_value_judgements,number
6707,,3179,28,,implicature,Graduated College,1552737532714,42,female,English,true,false,5c8c97666ca70b001512878b,Some lizards are reptiles.,false,2,Sat Mar 16 2019 11:54:45 GMT+0000 (GMT),1552737285124,4.1265,34,truth_value_judgements,some
6707,,1431,28,,implicature,Graduated College,1552737532714,42,female,English,true,false,5c8c97666ca70b001512878b,Most horses are mammals.,false,2,Sat Mar 16 2019 11:54:45 GMT+0000 (GMT),1552737285124,4.1265,35,truth_value_judgements,most
6707,,1165,28,,bizarre,Graduated College,1552737532714,42,female,English,true,false,5c8c97666ca70b001512878b,Guitars have four legs.,false,2,Sat Mar 16 2019 11:54:45 GMT+0000 (GMT),1552737285124,4.1265,36,truth_value_judgements,number
6707,,1804,28,,implicature,Graduated College,1552737532714,42,female,English,true,false,5c8c97666ca70b001512878b,Most sharks are fish.,false,1,Sat Mar 16 2019 11:54:45 GMT+0000 (GMT),1552737285124,4.1265,37,truth_value_judgements,most
6707,,2178,28,,bizarre,Graduated College,1552737532714,42,female,English,true,false,5c8c97666ca70b001512878b,Forests last three nights.,false,3,Sat Mar 16 2019 11:54:45 GMT+0000 (GMT),1552737285124,4.1265,38,truth_value_judgements,number
6707,,2691,28,,true,Graduated College,1552737532714,42,female,English,true,false,5c8c97666ca70b001512878b,A normal motorcycle has two wheels.,true,1,Sat Mar 16 2019 11:54:45 GMT+0000 (GMT),1552737285124,4.1265,39,truth_value_judgements,number
6707,,2058,28,,true,Graduated College,1552737532714,42,female,English,true,false,5c8c97666ca70b001512878b,Some drinks are made from chocolate.,true,5,Sat Mar 16 2019 11:54:45 GMT+0000 (GMT),1552737285124,4.1265,40,truth_value_judgements,some
6707,,3128,28,,implicature,Graduated College,1552737532714,42,female,English,true,false,5c8c97666ca70b001512878b,Monkeys have three bones.,false,5,Sat Mar 16 2019 11:54:45 GMT+0000 (GMT),1552737285124,4.1265,41,truth_value_judgements,number
6707,,2687,28,,implicature,Graduated College,1552737532714,42,female,English,true,false,5c8c97666ca70b001512878b,Most snakes are reptiles.,false,3,Sat Mar 16 2019 11:54:45 GMT+0000 (GMT),1552737285124,4.1265,42,truth_value_judgements,most
6707,,2998,28,,true,Graduated College,1552737532714,42,female,English,true,false,5c8c97666ca70b001512878b,Most people know more than one language.,true,4,Sat Mar 16 2019 11:54:45 GMT+0000 (GMT),1552737285124,4.1265,43,truth_value_judgements,most
6707,,2080,28,,true,Graduated College,1552737532714,42,female,English,true,false,5c8c97666ca70b001512878b,All dogs are mammals.,true,9,Sat Mar 16 2019 11:54:45 GMT+0000 (GMT),1552737285124,4.1265,44,truth_value_judgements,all
6707,,1330,28,,true,Graduated College,1552737532714,42,female,English,true,false,5c8c97666ca70b001512878b,All robins have wings.,true,3,Sat Mar 16 2019 11:54:45 GMT+0000 (GMT),1552737285124,4.1265,45,truth_value_judgements,all
6707,,1865,28,,bizarre,Graduated College,1552737532714,42,female,English,true,false,5c8c97666ca70b001512878b,The earth owns seven books.,false,5,Sat Mar 16 2019 11:54:45 GMT+0000 (GMT),1552737285124,4.1265,46,truth_value_judgements,number
6707,,2165,28,,true,Graduated College,1552737532714,42,female,English,true,false,5c8c97666ca70b001512878b,All eagles are birds.,true,8,Sat Mar 16 2019 11:54:45 GMT+0000 (GMT),1552737285124,4.1265,47,truth_value_judgements,all
6707,,2305,28,,bizarre,Graduated College,1552737532714,42,female,English,true,false,5c8c97666ca70b001512878b,Some fruits have computers.,false,2,Sat Mar 16 2019 11:54:45 GMT+0000 (GMT),1552737285124,4.1265,48,truth_value_judgements,some
6707,,2330,28,,true,Graduated College,1552737532714,42,female,English,true,false,5c8c97666ca70b001512878b,All books have pages.,true,1,Sat Mar 16 2019 11:54:45 GMT+0000 (GMT),1552737285124,4.1265,49,truth_value_judgements,all
6707,,1480,28,,true,Graduated College,1552737532714,42,female,English,true,false,5c8c97666ca70b001512878b,Cats have four legs.,true,4,Sat Mar 16 2019 11:54:45 GMT+0000 (GMT),1552737285124,4.1265,50,truth_value_judgements,number
6707,,1317,28,,true,Graduated College,1552737532714,42,female,English,true,false,5c8c97666ca70b001512878b,Some dresses have pockets.,true,2,Sat Mar 16 2019 11:54:45 GMT+0000 (GMT),1552737285124,4.1265,51,truth_value_judgements,some
6707,,1945,28,,true,Graduated College,1552737532714,42,female,English,true,false,5c8c97666ca70b001512878b,All hammers have a handle.,true,2,Sat Mar 16 2019 11:54:45 GMT+0000 (GMT),1552737285124,4.1265,52,truth_value_judgements,all
6707,,2736,28,,true,Graduated College,1552737532714,42,female,English,true,false,5c8c97666ca70b001512878b,Most horses are tame.,true,5,Sat Mar 16 2019 11:54:45 GMT+0000 (GMT),1552737285124,4.1265,53,truth_value_judgements,most
6707,,1713,28,,implicature,Graduated College,1552737532714,42,female,English,true,false,5c8c97666ca70b001512878b,A year has 245 days.,false,4,Sat Mar 16 2019 11:54:45 GMT+0000 (GMT),1552737285124,4.1265,54,truth_value_judgements,number
6707,,1953,28,,true,Graduated College,1552737532714,42,female,English,true,false,5c8c97666ca70b001512878b,Most birds can fly.,true,2,Sat Mar 16 2019 11:54:45 GMT+0000 (GMT),1552737285124,4.1265,55,truth_value_judgements,most
6707,,2111,28,,true,Graduated College,1552737532714,42,female,English,true,false,5c8c97666ca70b001512878b,Monkeys have five fingers on each hand.,false,2,Sat Mar 16 2019 11:54:45 GMT+0000 (GMT),1552737285124,4.1265,56,truth_value_judgements,number
6707,,2553,28,,bizarre,Graduated College,1552737532714,42,female,English,true,false,5c8c97666ca70b001512878b,All couches have windows.,false,5,Sat Mar 16 2019 11:54:45 GMT+0000 (GMT),1552737285124,4.1265,57,truth_value_judgements,all
6707,,1596,28,,bizarre,Graduated College,1552737532714,42,female,English,true,false,5c8c97666ca70b001512878b,Some books are good to eat.,false,3,Sat Mar 16 2019 11:54:45 GMT+0000 (GMT),1552737285124,4.1265,58,truth_value_judgements,some
6707,,1669,28,,bizarre,Graduated College,1552737532714,42,female,English,true,false,5c8c97666ca70b001512878b,All chairs tell time.,false,3,Sat Mar 16 2019 11:54:45 GMT+0000 (GMT),1552737285124,4.1265,59,truth_value_judgements,all
6707,,1625,28,,true,Graduated College,1552737532714,42,female,English,true,false,5c8c97666ca70b001512878b,All beetles are insects.,true,10,Sat Mar 16 2019 11:54:45 GMT+0000 (GMT),1552737285124,4.1265,60,truth_value_judgements,all
6706,,2200,39,,bizarre,Higher Degree,1552737506889,42,female,NGLISH,true,false,599489368acf1e0001597065,All couches have windows.,false,5,Sat Mar 16 2019 11:55:10 GMT+0000 (GMT Standard Time),1552737310512,3.27295,1,truth_value_judgements,all
6706,,1696,39,,bizarre,Higher Degree,1552737506889,42,female,NGLISH,true,false,599489368acf1e0001597065,Most motorcycles like music.,false,3,Sat Mar 16 2019 11:55:10 GMT+0000 (GMT Standard Time),1552737310512,3.27295,2,truth_value_judgements,most
6706,,2956,39,,implicature,Higher Degree,1552737506889,42,female,NGLISH,true,false,599489368acf1e0001597065,Most horses are mammals.,true,2,Sat Mar 16 2019 11:55:10 GMT+0000 (GMT Standard Time),1552737310512,3.27295,3,truth_value_judgements,most
6706,,3062,39,,implicature,Higher Degree,1552737506889,42,female,NGLISH,true,false,599489368acf1e0001597065,Some owls are birds.,false,3,Sat Mar 16 2019 11:55:10 GMT+0000 (GMT Standard Time),1552737310512,3.27295,4,truth_value_judgements,some
6706,,2745,39,,implicature,Higher Degree,1552737506889,42,female,NGLISH,true,false,599489368acf1e0001597065,Some cats are mammals.,false,5,Sat Mar 16 2019 11:55:10 GMT+0000 (GMT Standard Time),1552737310512,3.27295,5,truth_value_judgements,some
6706,,2179,39,,bizarre,Higher Degree,1552737506889,42,female,NGLISH,true,false,599489368acf1e0001597065,Some stores are made of bubbles.,false,4,Sat Mar 16 2019 11:55:10 GMT+0000 (GMT Standard Time),1552737310512,3.27295,6,truth_value_judgements,some
6706,,2223,39,,true,Higher Degree,1552737506889,42,female,NGLISH,true,false,599489368acf1e0001597065,All crocodiles are reptiles.,true,7,Sat Mar 16 2019 11:55:10 GMT+0000 (GMT Standard Time),1552737310512,3.27295,7,truth_value_judgements,all
6706,,1682,39,,true,Higher Degree,1552737506889,42,female,NGLISH,true,false,599489368acf1e0001597065,Most birds can fly.,true,2,Sat Mar 16 2019 11:55:10 GMT+0000 (GMT Standard Time),1552737310512,3.27295,8,truth_value_judgements,most
6706,,2445,39,,bizarre,Higher Degree,1552737506889,42,female,NGLISH,true,false,599489368acf1e0001597065,The earth owns seven books.,false,5,Sat Mar 16 2019 11:55:10 GMT+0000 (GMT Standard Time),1552737310512,3.27295,9,truth_value_judgements,number
6706,,2500,39,,true,Higher Degree,1552737506889,42,female,NGLISH,true,false,599489368acf1e0001597065,Some flowers are yellow.,true,1,Sat Mar 16 2019 11:55:10 GMT+0000 (GMT Standard Time),1552737310512,3.27295,10,truth_value_judgements,some
6706,,2437,39,,true,Higher Degree,1552737506889,42,female,NGLISH,true,false,599489368acf1e0001597065,Most people know their parents.,true,1,Sat Mar 16 2019 11:55:10 GMT+0000 (GMT Standard Time),1552737310512,3.27295,11,truth_value_judgements,most
6706,,3409,39,,implicature,Higher Degree,1552737506889,42,female,NGLISH,true,false,599489368acf1e0001597065,Some lizards are reptiles.,false,2,Sat Mar 16 2019 11:55:10 GMT+0000 (GMT Standard Time),1552737310512,3.27295,12,truth_value_judgements,some
6706,,4368,39,,true,Higher Degree,1552737506889,42,female,NGLISH,true,false,599489368acf1e0001597065,All refrigerators have doors.,true,5,Sat Mar 16 2019 11:55:10 GMT+0000 (GMT Standard Time),1552737310512,3.27295,13,truth_value_judgements,all
6706,,3289,39,,bizarre,Higher Degree,1552737506889,42,female,NGLISH,true,false,599489368acf1e0001597065,A week consists of five people.,false,4,Sat Mar 16 2019 11:55:10 GMT+0000 (GMT Standard Time),1552737310512,3.27295,14,truth_value_judgements,number
6706,,4698,39,,implicature,Higher Degree,1552737506889,42,female,NGLISH,true,false,599489368acf1e0001597065,Most sharks are fish.,false,1,Sat Mar 16 2019 11:55:10 GMT+0000 (GMT Standard Time),1552737310512,3.27295,15,truth_value_judgements,most
6706,,1597,39,,bizarre,Higher Degree,1552737506889,42,female,NGLISH,true,false,599489368acf1e0001597065,Most chairs are hungry.,false,2,Sat Mar 16 2019 11:55:10 GMT+0000 (GMT Standard Time),1552737310512,3.27295,16,truth_value_judgements,most
6706,,2655,39,,implicature,Higher Degree,1552737506889,42,female,NGLISH,true,false,599489368acf1e0001597065,Some trouts are fish.,true,1,Sat Mar 16 2019 11:55:10 GMT+0000 (GMT Standard Time),1552737310512,3.27295,17,truth_value_judgements,some
6706,,1259,39,,true,Higher Degree,1552737506889,42,female,NGLISH,true,false,599489368acf1e0001597065,Humans have two eyes.,true,5,Sat Mar 16 2019 11:55:10 GMT+0000 (GMT Standard Time),1552737310512,3.27295,18,truth_value_judgements,number
6706,,4574,39,,true,Higher Degree,1552737506889,42,female,NGLISH,true,false,599489368acf1e0001597065,All robins have wings.,true,3,Sat Mar 16 2019 11:55:10 GMT+0000 (GMT Standard Time),1552737310512,3.27295,19,truth_value_judgements,all
6706,,1510,39,,true,Higher Degree,1552737506889,42,female,NGLISH,true,false,599489368acf1e0001597065,Some drinks are made from chocolate.,true,5,Sat Mar 16 2019 11:55:10 GMT+0000 (GMT Standard Time),1552737310512,3.27295,20,truth_value_judgements,some
6706,,2315,39,,bizarre,Higher Degree,1552737506889,42,female,NGLISH,true,false,599489368acf1e0001597065,Most tigers are literate.,false,5,Sat Mar 16 2019 11:55:10 GMT+0000 (GMT Standard Time),1552737310512,3.27295,21,truth_value_judgements,most
6706,,2376,39,,implicature,Higher Degree,1552737506889,42,female,NGLISH,true,false,599489368acf1e0001597065,Most snakes are reptiles.,true,3,Sat Mar 16 2019 11:55:10 GMT+0000 (GMT Standard Time),1552737310512,3.27295,22,truth_value_judgements,most
6706,,6154,39,,true,Higher Degree,1552737506889,42,female,NGLISH,true,false,599489368acf1e0001597065,All books have pages.,false,1,Sat Mar 16 2019 11:55:10 GMT+0000 (GMT Standard Time),1552737310512,3.27295,23,truth_value_judgements,all
6706,,6343,39,,implicature,Higher Degree,1552737506889,42,female,NGLISH,true,false,599489368acf1e0001597065,Modern cars have three wheels.,false,1,Sat Mar 16 2019 11:55:10 GMT+0000 (GMT Standard Time),1552737310512,3.27295,24,truth_value_judgements,number
6706,,1599,39,,true,Higher Degree,1552737506889,42,female,NGLISH,true,false,599489368acf1e0001597065,All salmon are fish.,true,6,Sat Mar 16 2019 11:55:10 GMT+0000 (GMT Standard Time),1552737310512,3.27295,25,truth_value_judgements,all
6706,,2105,39,,true,Higher Degree,1552737506889,42,female,NGLISH,true,false,599489368acf1e0001597065,Cats have four legs.,true,4,Sat Mar 16 2019 11:55:10 GMT+0000 (GMT Standard Time),1552737310512,3.27295,26,truth_value_judgements,number
6706,,2014,39,,bizarre,Higher Degree,1552737506889,42,female,NGLISH,true,false,599489368acf1e0001597065,Some books are good to eat.,false,3,Sat Mar 16 2019 11:55:10 GMT+0000 (GMT Standard Time),1552737310512,3.27295,27,truth_value_judgements,some
6706,,1462,39,,bizarre,Higher Degree,1552737506889,42,female,NGLISH,true,false,599489368acf1e0001597065,All chairs tell time.,false,3,Sat Mar 16 2019 11:55:10 GMT+0000 (GMT Standard Time),1552737310512,3.27295,28,truth_value_judgements,all
6706,,1854,39,,true,Higher Degree,1552737506889,42,female,NGLISH,true,false,599489368acf1e0001597065,All beetles are insects.,true,10,Sat Mar 16 2019 11:55:10 GMT+0000 (GMT Standard Time),1552737310512,3.27295,29,truth_value_judgements,all
6706,,1036,39,,true,Higher Degree,1552737506889,42,female,NGLISH,true,false,599489368acf1e0001597065,A week has seven days.,true,3,Sat Mar 16 2019 11:55:10 GMT+0000 (GMT Standard Time),1552737310512,3.27295,30,truth_value_judgements,number
6706,,1970,39,,bizarre,Higher Degree,1552737506889,42,female,NGLISH,true,false,599489368acf1e0001597065,Some children are made of feathers.,false,5,Sat Mar 16 2019 11:55:10 GMT+0000 (GMT Standard Time),1552737310512,3.27295,31,truth_value_judgements,some
6706,,1214,39,,implicature,Higher Degree,1552737506889,42,female,NGLISH,true,false,599489368acf1e0001597065,Monkeys have three bones.,false,5,Sat Mar 16 2019 11:55:10 GMT+0000 (GMT Standard Time),1552737310512,3.27295,32,truth_value_judgements,number
6706,,1810,39,,true,Higher Degree,1552737506889,42,female,NGLISH,true,false,599489368acf1e0001597065,All eagles are birds.,true,8,Sat Mar 16 2019 11:55:10 GMT+0000 (GMT Standard Time),1552737310512,3.27295,33,truth_value_judgements,all
6706,,2118,39,,true,Higher Degree,1552737506889,42,female,NGLISH,true,false,599489368acf1e0001597065,Most days in a year are working days.,true,3,Sat Mar 16 2019 11:55:10 GMT+0000 (GMT Standard Time),1552737310512,3.27295,34,truth_value_judgements,most
6706,,1825,39,,implicature,Higher Degree,1552737506889,42,female,NGLISH,true,false,599489368acf1e0001597065,Most pigeons are birds.,true,4,Sat Mar 16 2019 11:55:10 GMT+0000 (GMT Standard Time),1552737310512,3.27295,35,truth_value_judgements,most
6706,,2863,39,,bizarre,Higher Degree,1552737506889,42,female,NGLISH,true,false,599489368acf1e0001597065,The moon has two ears.,false,1,Sat Mar 16 2019 11:55:10 GMT+0000 (GMT Standard Time),1552737310512,3.27295,36,truth_value_judgements,number
6706,,2640,39,,true,Higher Degree,1552737506889,42,female,NGLISH,true,false,599489368acf1e0001597065,Some children are blond.,true,4,Sat Mar 16 2019 11:55:10 GMT+0000 (GMT Standard Time),1552737310512,3.27295,37,truth_value_judgements,some
6706,,1930,39,,bizarre,Higher Degree,1552737506889,42,female,NGLISH,true,false,599489368acf1e0001597065,Some fruits have computers.,false,2,Sat Mar 16 2019 11:55:10 GMT+0000 (GMT Standard Time),1552737310512,3.27295,38,truth_value_judgements,some
6706,,1890,39,,true,Higher Degree,1552737506889,42,female,NGLISH,true,false,599489368acf1e0001597065,All dogs are mammals.,true,9,Sat Mar 16 2019 11:55:10 GMT+0000 (GMT Standard Time),1552737310512,3.27295,39,truth_value_judgements,all
6706,,3461,39,,true,Higher Degree,1552737506889,42,female,NGLISH,true,false,599489368acf1e0001597065,A normal motorcycle has two wheels.,true,1,Sat Mar 16 2019 11:55:10 GMT+0000 (GMT Standard Time),1552737310512,3.27295,40,truth_value_judgements,number
6706,,2580,39,,implicature,Higher Degree,1552737506889,42,female,NGLISH,true,false,599489368acf1e0001597065,The universe contains three planets.,false,3,Sat Mar 16 2019 11:55:10 GMT+0000 (GMT Standard Time),1552737310512,3.27295,41,truth_value_judgements,number
6706,,4677,39,,implicature,Higher Degree,1552737506889,42,female,NGLISH,true,false,599489368acf1e0001597065,Some ants are insects.,false,4,Sat Mar 16 2019 11:55:10 GMT+0000 (GMT Standard Time),1552737310512,3.27295,42,truth_value_judgements,some
6706,,2636,39,,bizarre,Higher Degree,1552737506889,42,female,NGLISH,true,false,599489368acf1e0001597065,All birds have telephones.,false,1,Sat Mar 16 2019 11:55:10 GMT+0000 (GMT Standard Time),1552737310512,3.27295,43,truth_value_judgements,all
6706,,965,39,,bizarre,Higher Degree,1552737506889,42,female,NGLISH,true,false,599489368acf1e0001597065,All garages sing.,false,4,Sat Mar 16 2019 11:55:10 GMT+0000 (GMT Standard Time),1552737310512,3.27295,44,truth_value_judgements,all
6706,,1094,39,,true,Higher Degree,1552737506889,42,female,NGLISH,true,false,599489368acf1e0001597065,All hammers have a handle.,false,2,Sat Mar 16 2019 11:55:10 GMT+0000 (GMT Standard Time),1552737310512,3.27295,45,truth_value_judgements,all
6706,,3084,39,,bizarre,Higher Degree,1552737506889,42,female,NGLISH,true,false,599489368acf1e0001597065,Some fish are made of leaves.,false,1,Sat Mar 16 2019 11:55:10 GMT+0000 (GMT Standard Time),1552737310512,3.27295,46,truth_value_judgements,some
6706,,4200,39,,true,Higher Degree,1552737506889,42,female,NGLISH,true,false,599489368acf1e0001597065,Most horses are tame.,false,5,Sat Mar 16 2019 11:55:10 GMT+0000 (GMT Standard Time),1552737310512,3.27295,47,truth_value_judgements,most
6706,,1840,39,,implicature,Higher Degree,1552737506889,42,female,NGLISH,true,false,599489368acf1e0001597065,Most elephants are mammals.,true,5,Sat Mar 16 2019 11:55:10 GMT+0000 (GMT Standard Time),1552737310512,3.27295,48,truth_value_judgements,most
6706,,2071,39,,implicature,Higher Degree,1552737506889,42,female,NGLISH,true,false,599489368acf1e0001597065,A year has 245 days.,false,4,Sat Mar 16 2019 11:55:10 GMT+0000 (GMT Standard Time),1552737310512,3.27295,49,truth_value_judgements,number
6706,,3296,39,,true,Higher Degree,1552737506889,42,female,NGLISH,true,false,599489368acf1e0001597065,Most people know more than one language.,false,4,Sat Mar 16 2019 11:55:10 GMT+0000 (GMT Standard Time),1552737310512,3.27295,50,truth_value_judgements,most
6706,,2428,39,,bizarre,Higher Degree,1552737506889,42,female,NGLISH,true,false,599489368acf1e0001597065,Guitars have four legs.,false,2,Sat Mar 16 2019 11:55:10 GMT+0000 (GMT Standard Time),1552737310512,3.27295,51,truth_value_judgements,number
6706,,2851,39,,bizarre,Higher Degree,1552737506889,42,female,NGLISH,true,false,599489368acf1e0001597065,Most elephants have glasses.,false,1,Sat Mar 16 2019 11:55:10 GMT+0000 (GMT Standard Time),1552737310512,3.27295,52,truth_value_judgements,most
6706,,2767,39,,true,Higher Degree,1552737506889,42,female,NGLISH,true,false,599489368acf1e0001597065,Some dresses have pockets.,true,2,Sat Mar 16 2019 11:55:10 GMT+0000 (GMT Standard Time),1552737310512,3.27295,53,truth_value_judgements,some
6706,,2050,39,,bizarre,Higher Degree,1552737506889,42,female,NGLISH,true,false,599489368acf1e0001597065,Forests last three nights.,false,3,Sat Mar 16 2019 11:55:10 GMT+0000 (GMT Standard Time),1552737310512,3.27295,54,truth_value_judgements,number
6706,,2519,39,,true,Higher Degree,1552737506889,42,female,NGLISH,true,false,599489368acf1e0001597065,Monkeys have five fingers on each hand.,false,2,Sat Mar 16 2019 11:55:10 GMT+0000 (GMT Standard Time),1552737310512,3.27295,55,truth_value_judgements,number
6706,,1426,39,,bizarre,Higher Degree,1552737506889,42,female,NGLISH,true,false,599489368acf1e0001597065,All crayons have noses.,false,2,Sat Mar 16 2019 11:55:10 GMT+0000 (GMT Standard Time),1552737310512,3.27295,56,truth_value_judgements,all
6706,,2389,39,,implicature,Higher Degree,1552737506889,42,female,NGLISH,true,false,599489368acf1e0001597065,A human hand has two fingers.,false,2,Sat Mar 16 2019 11:55:10 GMT+0000 (GMT Standard Time),1552737310512,3.27295,57,truth_value_judgements,number
6706,,3024,39,,true,Higher Degree,1552737506889,42,female,NGLISH,true,false,599489368acf1e0001597065,All elephants have trunks.,true,4,Sat Mar 16 2019 11:55:10 GMT+0000 (GMT Standard Time),1552737310512,3.27295,58,truth_value_judgements,all
6706,,1455,39,,true,Higher Degree,1552737506889,42,female,NGLISH,true,false,599489368acf1e0001597065,Some tools are made of wood..,true,3,Sat Mar 16 2019 11:55:10 GMT+0000 (GMT Standard Time),1552737310512,3.27295,59,truth_value_judgements,some
6706,,1705,39,,bizarre,Higher Degree,1552737506889,42,female,NGLISH,true,false,599489368acf1e0001597065,Most sofas are friendly.,false,4,Sat Mar 16 2019 11:55:10 GMT+0000 (GMT Standard Time),1552737310512,3.27295,60,truth_value_judgements,most
6705,,4226,21,,implicature,Graduated High School,1552737213820,42,female,English,true,false,5c7f7f9f436f030010ded78f,Some lizards are reptiles.,true,2,Sat Mar 16 2019 22:50:46 GMT+1100 (Australian Eastern Daylight Time),1552737046964,2.7809333333333335,1,truth_value_judgements,some
6705,,2597,21,,bizarre,Graduated High School,1552737213820,42,female,English,true,false,5c7f7f9f436f030010ded78f,A week consists of five people.,false,4,Sat Mar 16 2019 22:50:46 GMT+1100 (Australian Eastern Daylight Time),1552737046964,2.7809333333333335,2,truth_value_judgements,number
6705,,7521,21,,implicature,Graduated High School,1552737213820,42,female,English,true,false,5c7f7f9f436f030010ded78f,Some ants are insects.,false,4,Sat Mar 16 2019 22:50:46 GMT+1100 (Australian Eastern Daylight Time),1552737046964,2.7809333333333335,3,truth_value_judgements,some
6705,,1326,21,,true,Graduated High School,1552737213820,42,female,English,true,false,5c7f7f9f436f030010ded78f,Some flowers are yellow.,true,1,Sat Mar 16 2019 22:50:46 GMT+1100 (Australian Eastern Daylight Time),1552737046964,2.7809333333333335,4,truth_value_judgements,some
6705,,2204,21,,true,Graduated High School,1552737213820,42,female,English,true,false,5c7f7f9f436f030010ded78f,Most people know more than one language.,true,4,Sat Mar 16 2019 22:50:46 GMT+1100 (Australian Eastern Daylight Time),1552737046964,2.7809333333333335,5,truth_value_judgements,most
6705,,1490,21,,bizarre,Graduated High School,1552737213820,42,female,English,true,false,5c7f7f9f436f030010ded78f,Some fish are made of leaves.,false,1,Sat Mar 16 2019 22:50:46 GMT+1100 (Australian Eastern Daylight Time),1552737046964,2.7809333333333335,6,truth_value_judgements,some
6705,,2001,21,,bizarre,Graduated High School,1552737213820,42,female,English,true,false,5c7f7f9f436f030010ded78f,All crayons have noses.,false,2,Sat Mar 16 2019 22:50:46 GMT+1100 (Australian Eastern Daylight Time),1552737046964,2.7809333333333335,7,truth_value_judgements,all
6705,,4162,21,,implicature,Graduated High School,1552737213820,42,female,English,true,false,5c7f7f9f436f030010ded78f,Most pigeons are birds.,false,4,Sat Mar 16 2019 22:50:46 GMT+1100 (Australian Eastern Daylight Time),1552737046964,2.7809333333333335,8,truth_value_judgements,most
6705,,1446,21,,true,Graduated High School,1552737213820,42,female,English,true,false,5c7f7f9f436f030010ded78f,Cats have four legs.,true,4,Sat Mar 16 2019 22:50:46 GMT+1100 (Australian Eastern Daylight Time),1552737046964,2.7809333333333335,9,truth_value_judgements,number
6705,,1284,21,,bizarre,Graduated High School,1552737213820,42,female,English,true,false,5c7f7f9f436f030010ded78f,All birds have telephones.,false,1,Sat Mar 16 2019 22:50:46 GMT+1100 (Australian Eastern Daylight Time),1552737046964,2.7809333333333335,10,truth_value_judgements,all
6705,,1094,21,,true,Graduated High School,1552737213820,42,female,English,true,false,5c7f7f9f436f030010ded78f,All books have pages.,true,1,Sat Mar 16 2019 22:50:46 GMT+1100 (Australian Eastern Daylight Time),1552737046964,2.7809333333333335,11,truth_value_judgements,all
6705,,3130,21,,bizarre,Graduated High School,1552737213820,42,female,English,true,false,5c7f7f9f436f030010ded78f,Most motorcycles like music.,false,3,Sat Mar 16 2019 22:50:46 GMT+1100 (Australian Eastern Daylight Time),1552737046964,2.7809333333333335,12,truth_value_judgements,most
6705,,1468,21,,true,Graduated High School,1552737213820,42,female,English,true,false,5c7f7f9f436f030010ded78f,A normal motorcycle has two wheels.,true,1,Sat Mar 16 2019 22:50:46 GMT+1100 (Australian Eastern Daylight Time),1552737046964,2.7809333333333335,13,truth_value_judgements,number
6705,,1304,21,,bizarre,Graduated High School,1552737213820,42,female,English,true,false,5c7f7f9f436f030010ded78f,All couches have windows.,false,5,Sat Mar 16 2019 22:50:46 GMT+1100 (Australian Eastern Daylight Time),1552737046964,2.7809333333333335,14,truth_value_judgements,all
6705,,2162,21,,true,Graduated High School,1552737213820,42,female,English,true,false,5c7f7f9f436f030010ded78f,All hammers have a handle.,true,2,Sat Mar 16 2019 22:50:46 GMT+1100 (Australian Eastern Daylight Time),1552737046964,2.7809333333333335,15,truth_value_judgements,all
6705,,1458,21,,implicature,Graduated High School,1552737213820,42,female,English,true,false,5c7f7f9f436f030010ded78f,A human hand has two fingers.,false,2,Sat Mar 16 2019 22:50:46 GMT+1100 (Australian Eastern Daylight Time),1552737046964,2.7809333333333335,16,truth_value_judgements,number
6705,,1230,21,,bizarre,Graduated High School,1552737213820,42,female,English,true,false,5c7f7f9f436f030010ded78f,Some fruits have computers.,false,2,Sat Mar 16 2019 22:50:46 GMT+1100 (Australian Eastern Daylight Time),1552737046964,2.7809333333333335,17,truth_value_judgements,some
6705,,9228,21,,implicature,Graduated High School,1552737213820,42,female,English,true,false,5c7f7f9f436f030010ded78f,Most sharks are fish.,false,1,Sat Mar 16 2019 22:50:46 GMT+1100 (Australian Eastern Daylight Time),1552737046964,2.7809333333333335,18,truth_value_judgements,most
6705,,1452,21,,true,Graduated High School,1552737213820,42,female,English,true,false,5c7f7f9f436f030010ded78f,All elephants have trunks.,true,4,Sat Mar 16 2019 22:50:46 GMT+1100 (Australian Eastern Daylight Time),1552737046964,2.7809333333333335,19,truth_value_judgements,all
6705,,1486,21,,true,Graduated High School,1552737213820,42,female,English,true,false,5c7f7f9f436f030010ded78f,Some children are blond.,true,4,Sat Mar 16 2019 22:50:46 GMT+1100 (Australian Eastern Daylight Time),1552737046964,2.7809333333333335,20,truth_value_judgements,some
6705,,2372,21,,implicature,Graduated High School,1552737213820,42,female,English,true,false,5c7f7f9f436f030010ded78f,Most elephants are mammals.,false,5,Sat Mar 16 2019 22:50:46 GMT+1100 (Australian Eastern Daylight Time),1552737046964,2.7809333333333335,21,truth_value_judgements,most
6705,,1340,21,,implicature,Graduated High School,1552737213820,42,female,English,true,false,5c7f7f9f436f030010ded78f,Modern cars have three wheels.,false,1,Sat Mar 16 2019 22:50:46 GMT+1100 (Australian Eastern Daylight Time),1552737046964,2.7809333333333335,22,truth_value_judgements,number
6705,,1116,21,,bizarre,Graduated High School,1552737213820,42,female,English,true,false,5c7f7f9f436f030010ded78f,All garages sing.,false,4,Sat Mar 16 2019 22:50:46 GMT+1100 (Australian Eastern Daylight Time),1552737046964,2.7809333333333335,23,truth_value_judgements,all
6705,,968,21,,bizarre,Graduated High School,1552737213820,42,female,English,true,false,5c7f7f9f436f030010ded78f,Guitars have four legs.,false,2,Sat Mar 16 2019 22:50:46 GMT+1100 (Australian Eastern Daylight Time),1552737046964,2.7809333333333335,24,truth_value_judgements,number
6705,,1036,21,,implicature,Graduated High School,1552737213820,42,female,English,true,false,5c7f7f9f436f030010ded78f,A year has 245 days.,false,4,Sat Mar 16 2019 22:50:46 GMT+1100 (Australian Eastern Daylight Time),1552737046964,2.7809333333333335,25,truth_value_judgements,number
6705,,5425,21,,true,Graduated High School,1552737213820,42,female,English,true,false,5c7f7f9f436f030010ded78f,All crocodiles are reptiles.,true,7,Sat Mar 16 2019 22:50:46 GMT+1100 (Australian Eastern Daylight Time),1552737046964,2.7809333333333335,26,truth_value_judgements,all
6705,,1998,21,,true,Graduated High School,1552737213820,42,female,English,true,false,5c7f7f9f436f030010ded78f,Most birds can fly.,true,2,Sat Mar 16 2019 22:50:46 GMT+1100 (Australian Eastern Daylight Time),1552737046964,2.7809333333333335,27,truth_value_judgements,most
6705,,916,21,,bizarre,Graduated High School,1552737213820,42,female,English,true,false,5c7f7f9f436f030010ded78f,All chairs tell time.,false,3,Sat Mar 16 2019 22:50:46 GMT+1100 (Australian Eastern Daylight Time),1552737046964,2.7809333333333335,28,truth_value_judgements,all
6705,,1326,21,,true,Graduated High School,1552737213820,42,female,English,true,false,5c7f7f9f436f030010ded78f,Some tools are made of wood..,true,3,Sat Mar 16 2019 22:50:46 GMT+1100 (Australian Eastern Daylight Time),1552737046964,2.7809333333333335,29,truth_value_judgements,some
6705,,1322,21,,bizarre,Graduated High School,1552737213820,42,female,English,true,false,5c7f7f9f436f030010ded78f,The earth owns seven books.,false,5,Sat Mar 16 2019 22:50:46 GMT+1100 (Australian Eastern Daylight Time),1552737046964,2.7809333333333335,30,truth_value_judgements,number
6705,,2148,21,,true,Graduated High School,1552737213820,42,female,English,true,false,5c7f7f9f436f030010ded78f,Most days in a year are working days.,true,3,Sat Mar 16 2019 22:50:46 GMT+1100 (Australian Eastern Daylight Time),1552737046964,2.7809333333333335,31,truth_value_judgements,most
6705,,1190,21,,bizarre,Graduated High School,1552737213820,42,female,English,true,false,5c7f7f9f436f030010ded78f,Some children are made of feathers.,false,5,Sat Mar 16 2019 22:50:46 GMT+1100 (Australian Eastern Daylight Time),1552737046964,2.7809333333333335,32,truth_value_judgements,some
6705,,6916,21,,true,Graduated High School,1552737213820,42,female,English,true,false,5c7f7f9f436f030010ded78f,All beetles are insects.,true,10,Sat Mar 16 2019 22:50:46 GMT+1100 (Australian Eastern Daylight Time),1552737046964,2.7809333333333335,33,truth_value_judgements,all
6705,,1246,21,,true,Graduated High School,1552737213820,42,female,English,true,false,5c7f7f9f436f030010ded78f,All dogs are mammals.,true,9,Sat Mar 16 2019 22:50:46 GMT+1100 (Australian Eastern Daylight Time),1552737046964,2.7809333333333335,34,truth_value_judgements,all
6705,,1160,21,,bizarre,Graduated High School,1552737213820,42,female,English,true,false,5c7f7f9f436f030010ded78f,Some stores are made of bubbles.,false,4,Sat Mar 16 2019 22:50:46 GMT+1100 (Australian Eastern Daylight Time),1552737046964,2.7809333333333335,35,truth_value_judgements,some
6705,,1414,21,,implicature,Graduated High School,1552737213820,42,female,English,true,false,5c7f7f9f436f030010ded78f,Some owls are birds.,false,3,Sat Mar 16 2019 22:50:46 GMT+1100 (Australian Eastern Daylight Time),1552737046964,2.7809333333333335,36,truth_value_judgements,some
6705,,956,21,,implicature,Graduated High School,1552737213820,42,female,English,true,false,5c7f7f9f436f030010ded78f,Monkeys have three bones.,false,5,Sat Mar 16 2019 22:50:46 GMT+1100 (Australian Eastern Daylight Time),1552737046964,2.7809333333333335,37,truth_value_judgements,number
6705,,1378,21,,true,Graduated High School,1552737213820,42,female,English,true,false,5c7f7f9f436f030010ded78f,Humans have two eyes.,true,5,Sat Mar 16 2019 22:50:46 GMT+1100 (Australian Eastern Daylight Time),1552737046964,2.7809333333333335,38,truth_value_judgements,number
6705,,902,21,,bizarre,Graduated High School,1552737213820,42,female,English,true,false,5c7f7f9f436f030010ded78f,The moon has two ears.,false,1,Sat Mar 16 2019 22:50:46 GMT+1100 (Australian Eastern Daylight Time),1552737046964,2.7809333333333335,39,truth_value_judgements,number
6705,,1604,21,,bizarre,Graduated High School,1552737213820,42,female,English,true,false,5c7f7f9f436f030010ded78f,Some books are good to eat.,false,3,Sat Mar 16 2019 22:50:46 GMT+1100 (Australian Eastern Daylight Time),1552737046964,2.7809333333333335,40,truth_value_judgements,some
6705,,1100,21,,bizarre,Graduated High School,1552737213820,42,female,English,true,false,5c7f7f9f436f030010ded78f,Most elephants have glasses.,false,1,Sat Mar 16 2019 22:50:46 GMT+1100 (Australian Eastern Daylight Time),1552737046964,2.7809333333333335,41,truth_value_judgements,most
6705,,1452,21,,true,Graduated High School,1552737213820,42,female,English,true,false,5c7f7f9f436f030010ded78f,Some drinks are made from chocolate.,true,5,Sat Mar 16 2019 22:50:46 GMT+1100 (Australian Eastern Daylight Time),1552737046964,2.7809333333333335,42,truth_value_judgements,some
6705,,1908,21,,bizarre,Graduated High School,1552737213820,42,female,English,true,false,5c7f7f9f436f030010ded78f,Forests last three nights.,false,3,Sat Mar 16 2019 22:50:46 GMT+1100 (Australian Eastern Daylight Time),1552737046964,2.7809333333333335,43,truth_value_judgements,number
6705,,1702,21,,implicature,Graduated High School,1552737213820,42,female,English,true,false,5c7f7f9f436f030010ded78f,Most horses are mammals.,false,2,Sat Mar 16 2019 22:50:46 GMT+1100 (Australian Eastern Daylight Time),1552737046964,2.7809333333333335,44,truth_value_judgements,most
6705,,4822,21,,true,Graduated High School,1552737213820,42,female,English,true,false,5c7f7f9f436f030010ded78f,Monkeys have five fingers on each hand.,true,2,Sat Mar 16 2019 22:50:46 GMT+1100 (Australian Eastern Daylight Time),1552737046964,2.7809333333333335,45,truth_value_judgements,number
6705,,1992,21,,implicature,Graduated High School,1552737213820,42,female,English,true,false,5c7f7f9f436f030010ded78f,Most snakes are reptiles.,false,3,Sat Mar 16 2019 22:50:46 GMT+1100 (Australian Eastern Daylight Time),1552737046964,2.7809333333333335,46,truth_value_judgements,most
6705,,1004,21,,true,Graduated High School,1552737213820,42,female,English,true,false,5c7f7f9f436f030010ded78f,All salmon are fish.,true,6,Sat Mar 16 2019 22:50:46 GMT+1100 (Australian Eastern Daylight Time),1552737046964,2.7809333333333335,47,truth_value_judgements,all
6705,,840,21,,true,Graduated High School,1552737213820,42,female,English,true,false,5c7f7f9f436f030010ded78f,A week has seven days.,true,3,Sat Mar 16 2019 22:50:46 GMT+1100 (Australian Eastern Daylight Time),1552737046964,2.7809333333333335,48,truth_value_judgements,number
6705,,1044,21,,true,Graduated High School,1552737213820,42,female,English,true,false,5c7f7f9f436f030010ded78f,All refrigerators have doors.,true,5,Sat Mar 16 2019 22:50:46 GMT+1100 (Australian Eastern Daylight Time),1552737046964,2.7809333333333335,49,truth_value_judgements,all
6705,,1198,21,,true,Graduated High School,1552737213820,42,female,English,true,false,5c7f7f9f436f030010ded78f,All robins have wings.,true,3,Sat Mar 16 2019 22:50:46 GMT+1100 (Australian Eastern Daylight Time),1552737046964,2.7809333333333335,50,truth_value_judgements,all
6705,,7524,21,,true,Graduated High School,1552737213820,42,female,English,true,false,5c7f7f9f436f030010ded78f,Most horses are tame.,true,5,Sat Mar 16 2019 22:50:46 GMT+1100 (Australian Eastern Daylight Time),1552737046964,2.7809333333333335,51,truth_value_judgements,most
6705,,1190,21,,implicature,Graduated High School,1552737213820,42,female,English,true,false,5c7f7f9f436f030010ded78f,Some cats are mammals.,false,5,Sat Mar 16 2019 22:50:46 GMT+1100 (Australian Eastern Daylight Time),1552737046964,2.7809333333333335,52,truth_value_judgements,some
6705,,1948,21,,true,Graduated High School,1552737213820,42,female,English,true,false,5c7f7f9f436f030010ded78f,Most people know their parents.,true,1,Sat Mar 16 2019 22:50:46 GMT+1100 (Australian Eastern Daylight Time),1552737046964,2.7809333333333335,53,truth_value_judgements,most
6705,,1644,21,,implicature,Graduated High School,1552737213820,42,female,English,true,false,5c7f7f9f436f030010ded78f,The universe contains three planets.,false,3,Sat Mar 16 2019 22:50:46 GMT+1100 (Australian Eastern Daylight Time),1552737046964,2.7809333333333335,54,truth_value_judgements,number
6705,,1146,21,,bizarre,Graduated High School,1552737213820,42,female,English,true,false,5c7f7f9f436f030010ded78f,Most tigers are literate.,false,5,Sat Mar 16 2019 22:50:46 GMT+1100 (Australian Eastern Daylight Time),1552737046964,2.7809333333333335,55,truth_value_judgements,most
6705,,1104,21,,true,Graduated High School,1552737213820,42,female,English,true,false,5c7f7f9f436f030010ded78f,All eagles are birds.,true,8,Sat Mar 16 2019 22:50:46 GMT+1100 (Australian Eastern Daylight Time),1552737046964,2.7809333333333335,56,truth_value_judgements,all
6705,,970,21,,bizarre,Graduated High School,1552737213820,42,female,English,true,false,5c7f7f9f436f030010ded78f,Most sofas are friendly.,false,4,Sat Mar 16 2019 22:50:46 GMT+1100 (Australian Eastern Daylight Time),1552737046964,2.7809333333333335,57,truth_value_judgements,most
6705,,1148,21,,bizarre,Graduated High School,1552737213820,42,female,English,true,false,5c7f7f9f436f030010ded78f,Most chairs are hungry.,false,2,Sat Mar 16 2019 22:50:46 GMT+1100 (Australian Eastern Daylight Time),1552737046964,2.7809333333333335,58,truth_value_judgements,most
6705,,1394,21,,true,Graduated High School,1552737213820,42,female,English,true,false,5c7f7f9f436f030010ded78f,Some dresses have pockets.,true,2,Sat Mar 16 2019 22:50:46 GMT+1100 (Australian Eastern Daylight Time),1552737046964,2.7809333333333335,59,truth_value_judgements,some
6705,,1514,21,,implicature,Graduated High School,1552737213820,42,female,English,true,false,5c7f7f9f436f030010ded78f,Some trouts are fish.,false,1,Sat Mar 16 2019 22:50:46 GMT+1100 (Australian Eastern Daylight Time),1552737046964,2.7809333333333335,60,truth_value_judgements,some
6704,,5578,37,,bizarre,Graduated College,1552737200304,42,female,English,true,false,55a0200ffdf99b1042b04f3b,Most sofas are friendly.,true,4,Sat Mar 16 2019 11:49:36 GMT+0000 (Greenwich Mean Time),1552736976715,3.7264833333333334,1,truth_value_judgements,most
6704,,3583,37,,true,Graduated College,1552737200304,42,female,English,true,false,55a0200ffdf99b1042b04f3b,Some tools are made of wood..,true,3,Sat Mar 16 2019 11:49:36 GMT+0000 (Greenwich Mean Time),1552736976715,3.7264833333333334,2,truth_value_judgements,some
6704,,7782,37,,implicature,Graduated College,1552737200304,42,female,English,true,false,55a0200ffdf99b1042b04f3b,Some ants are insects.,true,4,Sat Mar 16 2019 11:49:36 GMT+0000 (Greenwich Mean Time),1552736976715,3.7264833333333334,3,truth_value_judgements,some
6704,,2665,37,,bizarre,Graduated College,1552737200304,42,female,English,true,false,55a0200ffdf99b1042b04f3b,Most chairs are hungry.,false,2,Sat Mar 16 2019 11:49:36 GMT+0000 (Greenwich Mean Time),1552736976715,3.7264833333333334,4,truth_value_judgements,most
6704,,3916,37,,true,Graduated College,1552737200304,42,female,English,true,false,55a0200ffdf99b1042b04f3b,Humans have two eyes.,true,5,Sat Mar 16 2019 11:49:36 GMT+0000 (Greenwich Mean Time),1552736976715,3.7264833333333334,5,truth_value_judgements,number
6704,,2032,37,,bizarre,Graduated College,1552737200304,42,female,English,true,false,55a0200ffdf99b1042b04f3b,All couches have windows.,false,5,Sat Mar 16 2019 11:49:36 GMT+0000 (Greenwich Mean Time),1552736976715,3.7264833333333334,6,truth_value_judgements,all
6704,,3250,37,,implicature,Graduated College,1552737200304,42,female,English,true,false,55a0200ffdf99b1042b04f3b,The universe contains three planets.,false,3,Sat Mar 16 2019 11:49:36 GMT+0000 (Greenwich Mean Time),1552736976715,3.7264833333333334,7,truth_value_judgements,number
6704,,9837,37,,implicature,Graduated College,1552737200304,42,female,English,true,false,55a0200ffdf99b1042b04f3b,Most snakes are reptiles.,true,3,Sat Mar 16 2019 11:49:36 GMT+0000 (Greenwich Mean Time),1552736976715,3.7264833333333334,8,truth_value_judgements,most
6704,,4732,37,,implicature,Graduated College,1552737200304,42,female,English,true,false,55a0200ffdf99b1042b04f3b,Some trouts are fish.,false,1,Sat Mar 16 2019 11:49:36 GMT+0000 (Greenwich Mean Time),1552736976715,3.7264833333333334,9,truth_value_judgements,some
6704,,1981,37,,bizarre,Graduated College,1552737200304,42,female,English,true,false,55a0200ffdf99b1042b04f3b,Some fruits have computers.,false,2,Sat Mar 16 2019 11:49:36 GMT+0000 (Greenwich Mean Time),1552736976715,3.7264833333333334,10,truth_value_judgements,some
6704,,4133,37,,true,Graduated College,1552737200304,42,female,English,true,false,55a0200ffdf99b1042b04f3b,All books have pages.,true,1,Sat Mar 16 2019 11:49:36 GMT+0000 (Greenwich Mean Time),1552736976715,3.7264833333333334,11,truth_value_judgements,all
6704,,2465,37,,true,Graduated College,1552737200304,42,female,English,true,false,55a0200ffdf99b1042b04f3b,All dogs are mammals.,true,9,Sat Mar 16 2019 11:49:36 GMT+0000 (Greenwich Mean Time),1552736976715,3.7264833333333334,12,truth_value_judgements,all
6704,,2016,37,,true,Graduated College,1552737200304,42,female,English,true,false,55a0200ffdf99b1042b04f3b,Some dresses have pockets.,true,2,Sat Mar 16 2019 11:49:36 GMT+0000 (Greenwich Mean Time),1552736976715,3.7264833333333334,13,truth_value_judgements,some
6704,,6517,37,,implicature,Graduated College,1552737200304,42,female,English,true,false,55a0200ffdf99b1042b04f3b,Some lizards are reptiles.,false,2,Sat Mar 16 2019 11:49:36 GMT+0000 (Greenwich Mean Time),1552736976715,3.7264833333333334,14,truth_value_judgements,some
6704,,2133,37,,true,Graduated College,1552737200304,42,female,English,true,false,55a0200ffdf99b1042b04f3b,Some drinks are made from chocolate.,true,5,Sat Mar 16 2019 11:49:36 GMT+0000 (Greenwich Mean Time),1552736976715,3.7264833333333334,15,truth_value_judgements,some
6704,,2067,37,,bizarre,Graduated College,1552737200304,42,female,English,true,false,55a0200ffdf99b1042b04f3b,Most motorcycles like music.,false,3,Sat Mar 16 2019 11:49:36 GMT+0000 (Greenwich Mean Time),1552736976715,3.7264833333333334,16,truth_value_judgements,most
6704,,4717,37,,true,Graduated College,1552737200304,42,female,English,true,false,55a0200ffdf99b1042b04f3b,All robins have wings.,true,3,Sat Mar 16 2019 11:49:36 GMT+0000 (Greenwich Mean Time),1552736976715,3.7264833333333334,17,truth_value_judgements,all
6704,,1517,37,,bizarre,Graduated College,1552737200304,42,female,English,true,false,55a0200ffdf99b1042b04f3b,All garages sing.,false,4,Sat Mar 16 2019 11:49:36 GMT+0000 (Greenwich Mean Time),1552736976715,3.7264833333333334,18,truth_value_judgements,all
6704,,2448,37,,bizarre,Graduated College,1552737200304,42,female,English,true,false,55a0200ffdf99b1042b04f3b,Some books are good to eat.,false,3,Sat Mar 16 2019 11:49:36 GMT+0000 (Greenwich Mean Time),1552736976715,3.7264833333333334,19,truth_value_judgements,some
6704,,3266,37,,bizarre,Graduated College,1552737200304,42,female,English,true,false,55a0200ffdf99b1042b04f3b,Some fish are made of leaves.,false,1,Sat Mar 16 2019 11:49:36 GMT+0000 (Greenwich Mean Time),1552736976715,3.7264833333333334,20,truth_value_judgements,some
6704,,1900,37,,true,Graduated College,1552737200304,42,female,English,true,false,55a0200ffdf99b1042b04f3b,Some flowers are yellow.,true,1,Sat Mar 16 2019 11:49:36 GMT+0000 (Greenwich Mean Time),1552736976715,3.7264833333333334,21,truth_value_judgements,some
6704,,3367,37,,true,Graduated College,1552737200304,42,female,English,true,false,55a0200ffdf99b1042b04f3b,All beetles are insects.,true,10,Sat Mar 16 2019 11:49:36 GMT+0000 (Greenwich Mean Time),1552736976715,3.7264833333333334,22,truth_value_judgements,all
6704,,6650,37,,implicature,Graduated College,1552737200304,42,female,English,true,false,55a0200ffdf99b1042b04f3b,Most sharks are fish.,true,1,Sat Mar 16 2019 11:49:36 GMT+0000 (Greenwich Mean Time),1552736976715,3.7264833333333334,23,truth_value_judgements,most
6704,,1866,37,,true,Graduated College,1552737200304,42,female,English,true,false,55a0200ffdf99b1042b04f3b,Most birds can fly.,true,2,Sat Mar 16 2019 11:49:36 GMT+0000 (Greenwich Mean Time),1552736976715,3.7264833333333334,24,truth_value_judgements,most
6704,,1983,37,,implicature,Graduated College,1552737200304,42,female,English,true,false,55a0200ffdf99b1042b04f3b,A year has 245 days.,false,4,Sat Mar 16 2019 11:49:36 GMT+0000 (Greenwich Mean Time),1552736976715,3.7264833333333334,25,truth_value_judgements,number
6704,,1801,37,,bizarre,Graduated College,1552737200304,42,female,English,true,false,55a0200ffdf99b1042b04f3b,All chairs tell time.,false,3,Sat Mar 16 2019 11:49:36 GMT+0000 (Greenwich Mean Time),1552736976715,3.7264833333333334,26,truth_value_judgements,all
6704,,2050,37,,true,Graduated College,1552737200304,42,female,English,true,false,55a0200ffdf99b1042b04f3b,Some children are blond.,true,4,Sat Mar 16 2019 11:49:36 GMT+0000 (Greenwich Mean Time),1552736976715,3.7264833333333334,27,truth_value_judgements,some
6704,,2001,37,,bizarre,Graduated College,1552737200304,42,female,English,true,false,55a0200ffdf99b1042b04f3b,A week consists of five people.,false,4,Sat Mar 16 2019 11:49:36 GMT+0000 (Greenwich Mean Time),1552736976715,3.7264833333333334,28,truth_value_judgements,number
6704,,1914,37,,implicature,Graduated College,1552737200304,42,female,English,true,false,55a0200ffdf99b1042b04f3b,Monkeys have three bones.,false,5,Sat Mar 16 2019 11:49:36 GMT+0000 (Greenwich Mean Time),1552736976715,3.7264833333333334,29,truth_value_judgements,number
6704,,1466,37,,bizarre,Graduated College,1552737200304,42,female,English,true,false,55a0200ffdf99b1042b04f3b,The moon has two ears.,false,1,Sat Mar 16 2019 11:49:36 GMT+0000 (Greenwich Mean Time),1552736976715,3.7264833333333334,30,truth_value_judgements,number
6704,,6451,37,,implicature,Graduated College,1552737200304,42,female,English,true,false,55a0200ffdf99b1042b04f3b,Most elephants are mammals.,false,5,Sat Mar 16 2019 11:49:36 GMT+0000 (Greenwich Mean Time),1552736976715,3.7264833333333334,31,truth_value_judgements,most
6704,,2747,37,,bizarre,Graduated College,1552737200304,42,female,English,true,false,55a0200ffdf99b1042b04f3b,All crayons have noses.,false,2,Sat Mar 16 2019 11:49:36 GMT+0000 (Greenwich Mean Time),1552736976715,3.7264833333333334,32,truth_value_judgements,all
6704,,2000,37,,true,Graduated College,1552737200304,42,female,English,true,false,55a0200ffdf99b1042b04f3b,Most people know their parents.,true,1,Sat Mar 16 2019 11:49:36 GMT+0000 (Greenwich Mean Time),1552736976715,3.7264833333333334,33,truth_value_judgements,most
6704,,2115,37,,true,Graduated College,1552737200304,42,female,English,true,false,55a0200ffdf99b1042b04f3b,Monkeys have five fingers on each hand.,true,2,Sat Mar 16 2019 11:49:36 GMT+0000 (Greenwich Mean Time),1552736976715,3.7264833333333334,34,truth_value_judgements,number
6704,,3050,37,,implicature,Graduated College,1552737200304,42,female,English,true,false,55a0200ffdf99b1042b04f3b,Most pigeons are birds.,true,4,Sat Mar 16 2019 11:49:36 GMT+0000 (Greenwich Mean Time),1552736976715,3.7264833333333334,35,truth_value_judgements,most
6704,,1334,37,,true,Graduated College,1552737200304,42,female,English,true,false,55a0200ffdf99b1042b04f3b,A week has seven days.,true,3,Sat Mar 16 2019 11:49:36 GMT+0000 (Greenwich Mean Time),1552736976715,3.7264833333333334,36,truth_value_judgements,number
6704,,1831,37,,bizarre,Graduated College,1552737200304,42,female,English,true,false,55a0200ffdf99b1042b04f3b,The earth owns seven books.,false,5,Sat Mar 16 2019 11:49:36 GMT+0000 (Greenwich Mean Time),1552736976715,3.7264833333333334,37,truth_value_judgements,number
6704,,1865,37,,true,Graduated College,1552737200304,42,female,English,true,false,55a0200ffdf99b1042b04f3b,Cats have four legs.,true,4,Sat Mar 16 2019 11:49:36 GMT+0000 (Greenwich Mean Time),1552736976715,3.7264833333333334,38,truth_value_judgements,number
6704,,5619,37,,true,Graduated College,1552737200304,42,female,English,true,false,55a0200ffdf99b1042b04f3b,Most people know more than one language.,false,4,Sat Mar 16 2019 11:49:36 GMT+0000 (Greenwich Mean Time),1552736976715,3.7264833333333334,39,truth_value_judgements,most
6704,,3182,37,,implicature,Graduated College,1552737200304,42,female,English,true,false,55a0200ffdf99b1042b04f3b,Modern cars have three wheels.,false,1,Sat Mar 16 2019 11:49:36 GMT+0000 (Greenwich Mean Time),1552736976715,3.7264833333333334,40,truth_value_judgements,number
6704,,3200,37,,bizarre,Graduated College,1552737200304,42,female,English,true,false,55a0200ffdf99b1042b04f3b,Some stores are made of bubbles.,false,4,Sat Mar 16 2019 11:49:36 GMT+0000 (Greenwich Mean Time),1552736976715,3.7264833333333334,41,truth_value_judgements,some
6704,,4182,37,,true,Graduated College,1552737200304,42,female,English,true,false,55a0200ffdf99b1042b04f3b,Most days in a year are working days.,true,3,Sat Mar 16 2019 11:49:36 GMT+0000 (Greenwich Mean Time),1552736976715,3.7264833333333334,42,truth_value_judgements,most
6704,,1783,37,,bizarre,Graduated College,1552737200304,42,female,English,true,false,55a0200ffdf99b1042b04f3b,Most elephants have glasses.,false,1,Sat Mar 16 2019 11:49:36 GMT+0000 (Greenwich Mean Time),1552736976715,3.7264833333333334,43,truth_value_judgements,most
6704,,3184,37,,implicature,Graduated College,1552737200304,42,female,English,true,false,55a0200ffdf99b1042b04f3b,Some cats are mammals.,false,5,Sat Mar 16 2019 11:49:36 GMT+0000 (Greenwich Mean Time),1552736976715,3.7264833333333334,44,truth_value_judgements,some
6704,,2567,37,,implicature,Graduated College,1552737200304,42,female,English,true,false,55a0200ffdf99b1042b04f3b,A human hand has two fingers.,false,2,Sat Mar 16 2019 11:49:36 GMT+0000 (Greenwich Mean Time),1552736976715,3.7264833333333334,45,truth_value_judgements,number
6704,,2598,37,,implicature,Graduated College,1552737200304,42,female,English,true,false,55a0200ffdf99b1042b04f3b,Some owls are birds.,false,3,Sat Mar 16 2019 11:49:36 GMT+0000 (Greenwich Mean Time),1552736976715,3.7264833333333334,46,truth_value_judgements,some
6704,,2934,37,,true,Graduated College,1552737200304,42,female,English,true,false,55a0200ffdf99b1042b04f3b,All hammers have a handle.,true,2,Sat Mar 16 2019 11:49:36 GMT+0000 (Greenwich Mean Time),1552736976715,3.7264833333333334,47,truth_value_judgements,all
6704,,1983,37,,implicature,Graduated College,1552737200304,42,female,English,true,false,55a0200ffdf99b1042b04f3b,Most horses are mammals.,false,2,Sat Mar 16 2019 11:49:36 GMT+0000 (Greenwich Mean Time),1552736976715,3.7264833333333334,48,truth_value_judgements,most
6704,,2197,37,,true,Graduated College,1552737200304,42,female,English,true,false,55a0200ffdf99b1042b04f3b,Most horses are tame.,true,5,Sat Mar 16 2019 11:49:36 GMT+0000 (Greenwich Mean Time),1552736976715,3.7264833333333334,49,truth_value_judgements,most
6704,,2452,37,,bizarre,Graduated College,1552737200304,42,female,English,true,false,55a0200ffdf99b1042b04f3b,Most tigers are literate.,false,5,Sat Mar 16 2019 11:49:36 GMT+0000 (Greenwich Mean Time),1552736976715,3.7264833333333334,50,truth_value_judgements,most
6704,,1882,37,,bizarre,Graduated College,1552737200304,42,female,English,true,false,55a0200ffdf99b1042b04f3b,Some children are made of feathers.,false,5,Sat Mar 16 2019 11:49:36 GMT+0000 (Greenwich Mean Time),1552736976715,3.7264833333333334,51,truth_value_judgements,some
6704,,2050,37,,true,Graduated College,1552737200304,42,female,English,true,false,55a0200ffdf99b1042b04f3b,All crocodiles are reptiles.,true,7,Sat Mar 16 2019 11:49:36 GMT+0000 (Greenwich Mean Time),1552736976715,3.7264833333333334,52,truth_value_judgements,all
6704,,1596,37,,true,Graduated College,1552737200304,42,female,English,true,false,55a0200ffdf99b1042b04f3b,All elephants have trunks.,true,4,Sat Mar 16 2019 11:49:36 GMT+0000 (Greenwich Mean Time),1552736976715,3.7264833333333334,53,truth_value_judgements,all
6704,,2004,37,,true,Graduated College,1552737200304,42,female,English,true,false,55a0200ffdf99b1042b04f3b,All eagles are birds.,true,8,Sat Mar 16 2019 11:49:36 GMT+0000 (Greenwich Mean Time),1552736976715,3.7264833333333334,54,truth_value_judgements,all
6704,,3050,37,,bizarre,Graduated College,1552737200304,42,female,English,true,false,55a0200ffdf99b1042b04f3b,Forests last three nights.,false,3,Sat Mar 16 2019 11:49:36 GMT+0000 (Greenwich Mean Time),1552736976715,3.7264833333333334,55,truth_value_judgements,number
6704,,2080,37,,true,Graduated College,1552737200304,42,female,English,true,false,55a0200ffdf99b1042b04f3b,All refrigerators have doors.,true,5,Sat Mar 16 2019 11:49:36 GMT+0000 (Greenwich Mean Time),1552736976715,3.7264833333333334,56,truth_value_judgements,all
6704,,2484,37,,true,Graduated College,1552737200304,42,female,English,true,false,55a0200ffdf99b1042b04f3b,A normal motorcycle has two wheels.,true,1,Sat Mar 16 2019 11:49:36 GMT+0000 (Greenwich Mean Time),1552736976715,3.7264833333333334,57,truth_value_judgements,number
6704,,2249,37,,bizarre,Graduated College,1552737200304,42,female,English,true,false,55a0200ffdf99b1042b04f3b,Guitars have four legs.,false,2,Sat Mar 16 2019 11:49:36 GMT+0000 (Greenwich Mean Time),1552736976715,3.7264833333333334,58,truth_value_judgements,number
6704,,1831,37,,bizarre,Graduated College,1552737200304,42,female,English,true,false,55a0200ffdf99b1042b04f3b,All birds have telephones.,false,1,Sat Mar 16 2019 11:49:36 GMT+0000 (Greenwich Mean Time),1552736976715,3.7264833333333334,59,truth_value_judgements,all
6704,,1983,37,,true,Graduated College,1552737200304,42,female,English,true,false,55a0200ffdf99b1042b04f3b,All salmon are fish.,true,6,Sat Mar 16 2019 11:49:36 GMT+0000 (Greenwich Mean Time),1552736976715,3.7264833333333334,60,truth_value_judgements,all
6703,,1686,39,,true,Higher Degree,1552737204353,42,female,English,true,false,59ce4b5519d3170001b1d4cb,Some flowers are yellow.,true,1,Sat Mar 16 2019 11:50:23 GMT+0000 (GMT),1552737023012,3.02235,1,truth_value_judgements,some
6703,,1922,39,,implicature,Higher Degree,1552737204353,42,female,English,true,false,59ce4b5519d3170001b1d4cb,The universe contains three planets.,false,3,Sat Mar 16 2019 11:50:23 GMT+0000 (GMT),1552737023012,3.02235,2,truth_value_judgements,number
6703,,3161,39,,implicature,Higher Degree,1552737204353,42,female,English,true,false,59ce4b5519d3170001b1d4cb,Most snakes are reptiles.,true,3,Sat Mar 16 2019 11:50:23 GMT+0000 (GMT),1552737023012,3.02235,3,truth_value_judgements,most
6703,,3071,39,,true,Higher Degree,1552737204353,42,female,English,true,false,59ce4b5519d3170001b1d4cb,All crocodiles are reptiles.,true,7,Sat Mar 16 2019 11:50:23 GMT+0000 (GMT),1552737023012,3.02235,4,truth_value_judgements,all
6703,,2666,39,,true,Higher Degree,1552737204353,42,female,English,true,false,59ce4b5519d3170001b1d4cb,Monkeys have five fingers on each hand.,true,2,Sat Mar 16 2019 11:50:23 GMT+0000 (GMT),1552737023012,3.02235,5,truth_value_judgements,number
6703,,1733,39,,true,Higher Degree,1552737204353,42,female,English,true,false,59ce4b5519d3170001b1d4cb,Some drinks are made from chocolate.,true,5,Sat Mar 16 2019 11:50:23 GMT+0000 (GMT),1552737023012,3.02235,6,truth_value_judgements,some
6703,,1878,39,,implicature,Higher Degree,1552737204353,42,female,English,true,false,59ce4b5519d3170001b1d4cb,Modern cars have three wheels.,false,1,Sat Mar 16 2019 11:50:23 GMT+0000 (GMT),1552737023012,3.02235,7,truth_value_judgements,number
6703,,1677,39,,bizarre,Higher Degree,1552737204353,42,female,English,true,false,59ce4b5519d3170001b1d4cb,All birds have telephones.,false,1,Sat Mar 16 2019 11:50:23 GMT+0000 (GMT),1552737023012,3.02235,8,truth_value_judgements,all
6703,,2013,39,,implicature,Higher Degree,1552737204353,42,female,English,true,false,59ce4b5519d3170001b1d4cb,A human hand has two fingers.,false,2,Sat Mar 16 2019 11:50:23 GMT+0000 (GMT),1552737023012,3.02235,9,truth_value_judgements,number
6703,,1867,39,,true,Higher Degree,1552737204353,42,female,English,true,false,59ce4b5519d3170001b1d4cb,All books have pages.,true,1,Sat Mar 16 2019 11:50:23 GMT+0000 (GMT),1552737023012,3.02235,10,truth_value_judgements,all
6703,,1586,39,,bizarre,Higher Degree,1552737204353,42,female,English,true,false,59ce4b5519d3170001b1d4cb,All crayons have noses.,false,2,Sat Mar 16 2019 11:50:23 GMT+0000 (GMT),1552737023012,3.02235,11,truth_value_judgements,all
6703,,1812,39,,implicature,Higher Degree,1552737204353,42,female,English,true,false,59ce4b5519d3170001b1d4cb,Most horses are mammals.,true,2,Sat Mar 16 2019 11:50:23 GMT+0000 (GMT),1552737023012,3.02235,12,truth_value_judgements,most
6703,,1551,39,,bizarre,Higher Degree,1552737204353,42,female,English,true,false,59ce4b5519d3170001b1d4cb,Guitars have four legs.,false,2,Sat Mar 16 2019 11:50:23 GMT+0000 (GMT),1552737023012,3.02235,13,truth_value_judgements,number
6703,,2317,39,,true,Higher Degree,1552737204353,42,female,English,true,false,59ce4b5519d3170001b1d4cb,All beetles are insects.,true,10,Sat Mar 16 2019 11:50:23 GMT+0000 (GMT),1552737023012,3.02235,14,truth_value_judgements,all
6703,,1540,39,,bizarre,Higher Degree,1552737204353,42,female,English,true,false,59ce4b5519d3170001b1d4cb,All couches have windows.,false,5,Sat Mar 16 2019 11:50:23 GMT+0000 (GMT),1552737023012,3.02235,15,truth_value_judgements,all
6703,,1529,39,,bizarre,Higher Degree,1552737204353,42,female,English,true,false,59ce4b5519d3170001b1d4cb,All chairs tell time.,false,3,Sat Mar 16 2019 11:50:23 GMT+0000 (GMT),1552737023012,3.02235,16,truth_value_judgements,all
6703,,1619,39,,true,Higher Degree,1552737204353,42,female,English,true,false,59ce4b5519d3170001b1d4cb,All salmon are fish.,true,6,Sat Mar 16 2019 11:50:23 GMT+0000 (GMT),1552737023012,3.02235,17,truth_value_judgements,all
6703,,2790,39,,true,Higher Degree,1552737204353,42,female,English,true,false,59ce4b5519d3170001b1d4cb,Most days in a year are working days.,true,3,Sat Mar 16 2019 11:50:23 GMT+0000 (GMT),1552737023012,3.02235,18,truth_value_judgements,most
6703,,1866,39,,true,Higher Degree,1552737204353,42,female,English,true,false,59ce4b5519d3170001b1d4cb,All eagles are birds.,true,8,Sat Mar 16 2019 11:50:23 GMT+0000 (GMT),1552737023012,3.02235,19,truth_value_judgements,all
6703,,2249,39,,true,Higher Degree,1552737204353,42,female,English,true,false,59ce4b5519d3170001b1d4cb,All hammers have a handle.,true,2,Sat Mar 16 2019 11:50:23 GMT+0000 (GMT),1552737023012,3.02235,20,truth_value_judgements,all
6703,,1406,39,,true,Higher Degree,1552737204353,42,female,English,true,false,59ce4b5519d3170001b1d4cb,All refrigerators have doors.,true,5,Sat Mar 16 2019 11:50:23 GMT+0000 (GMT),1552737023012,3.02235,21,truth_value_judgements,all
6703,,1361,39,,implicature,Higher Degree,1552737204353,42,female,English,true,false,59ce4b5519d3170001b1d4cb,Some trouts are fish.,true,1,Sat Mar 16 2019 11:50:23 GMT+0000 (GMT),1552737023012,3.02235,22,truth_value_judgements,some
6703,,1643,39,,bizarre,Higher Degree,1552737204353,42,female,English,true,false,59ce4b5519d3170001b1d4cb,The earth owns seven books.,false,5,Sat Mar 16 2019 11:50:23 GMT+0000 (GMT),1552737023012,3.02235,23,truth_value_judgements,number
6703,,2643,39,,true,Higher Degree,1552737204353,42,female,English,true,false,59ce4b5519d3170001b1d4cb,Most people know their parents.,true,1,Sat Mar 16 2019 11:50:23 GMT+0000 (GMT),1552737023012,3.02235,24,truth_value_judgements,most
6703,,1632,39,,bizarre,Higher Degree,1552737204353,42,female,English,true,false,59ce4b5519d3170001b1d4cb,Forests last three nights.,false,3,Sat Mar 16 2019 11:50:23 GMT+0000 (GMT),1552737023012,3.02235,25,truth_value_judgements,number
6703,,2340,39,,bizarre,Higher Degree,1552737204353,42,female,English,true,false,59ce4b5519d3170001b1d4cb,Most motorcycles like music.,false,3,Sat Mar 16 2019 11:50:23 GMT+0000 (GMT),1552737023012,3.02235,26,truth_value_judgements,most
6703,,1606,39,,bizarre,Higher Degree,1552737204353,42,female,English,true,false,59ce4b5519d3170001b1d4cb,Most chairs are hungry.,false,2,Sat Mar 16 2019 11:50:23 GMT+0000 (GMT),1552737023012,3.02235,27,truth_value_judgements,most
6703,,1271,39,,implicature,Higher Degree,1552737204353,42,female,English,true,false,59ce4b5519d3170001b1d4cb,Some cats are mammals.,true,5,Sat Mar 16 2019 11:50:23 GMT+0000 (GMT),1552737023012,3.02235,28,truth_value_judgements,some
6703,,3070,39,,bizarre,Higher Degree,1552737204353,42,female,English,true,false,59ce4b5519d3170001b1d4cb,Some stores are made of bubbles.,false,4,Sat Mar 16 2019 11:50:23 GMT+0000 (GMT),1552737023012,3.02235,29,truth_value_judgements,some
6703,,1799,39,,bizarre,Higher Degree,1552737204353,42,female,English,true,false,59ce4b5519d3170001b1d4cb,Some fish are made of leaves.,false,1,Sat Mar 16 2019 11:50:23 GMT+0000 (GMT),1552737023012,3.02235,30,truth_value_judgements,some
