submission_id,QUD,RT,age,comments,condition,education,endTime,experiment_id,gender,languages,option1,option2,prolific_id,question,response,sentence_nr,startDate,startTime,timeSpent,trial_number,trial_type,trigger
6834,,7437,50,,implicature,Graduated High School,1553273765791,45,female,English,true,false,5b0b30afe9270900013ba107,The universe contains three planets.,false,3,Fri Mar 22 2019 16:48:20 GMT+0000 (GMT),1553273300158,7.76055,1,truth_value_judgements,number
6834,,6993,50,,implicature,Graduated High School,1553273765791,45,female,English,true,false,5b0b30afe9270900013ba107,Some trouts are fish.,false,1,Fri Mar 22 2019 16:48:20 GMT+0000 (GMT),1553273300158,7.76055,2,truth_value_judgements,some
6834,,5915,50,,true,Graduated High School,1553273765791,45,female,English,true,false,5b0b30afe9270900013ba107,All robins have wings.,true,3,Fri Mar 22 2019 16:48:20 GMT+0000 (GMT),1553273300158,7.76055,3,truth_value_judgements,all
6834,,6006,50,,true,Graduated High School,1553273765791,45,female,English,true,false,5b0b30afe9270900013ba107,Most birds can fly.,true,2,Fri Mar 22 2019 16:48:20 GMT+0000 (GMT),1553273300158,7.76055,4,truth_value_judgements,most
6834,,6165,50,,implicature,Graduated High School,1553273765791,45,female,English,true,false,5b0b30afe9270900013ba107,Most sharks are fish.,false,1,Fri Mar 22 2019 16:48:20 GMT+0000 (GMT),1553273300158,7.76055,5,truth_value_judgements,most
6834,,6421,50,,bizarre,Graduated High School,1553273765791,45,female,English,true,false,5b0b30afe9270900013ba107,All couches have windows.,false,5,Fri Mar 22 2019 16:48:20 GMT+0000 (GMT),1553273300158,7.76055,6,truth_value_judgements,all
6834,,5987,50,,implicature,Graduated High School,1553273765791,45,female,English,true,false,5b0b30afe9270900013ba107,Some owls are birds.,false,3,Fri Mar 22 2019 16:48:20 GMT+0000 (GMT),1553273300158,7.76055,7,truth_value_judgements,some
6834,,5996,50,,bizarre,Graduated High School,1553273765791,45,female,English,true,false,5b0b30afe9270900013ba107,A week consists of five people.,false,4,Fri Mar 22 2019 16:48:20 GMT+0000 (GMT),1553273300158,7.76055,8,truth_value_judgements,number
6834,,6112,50,,bizarre,Graduated High School,1553273765791,45,female,English,true,false,5b0b30afe9270900013ba107,Some fruits have computers.,false,2,Fri Mar 22 2019 16:48:20 GMT+0000 (GMT),1553273300158,7.76055,9,truth_value_judgements,some
6834,,7492,50,,implicature,Graduated High School,1553273765791,45,female,English,true,false,5b0b30afe9270900013ba107,Most horses are mammals.,false,2,Fri Mar 22 2019 16:48:20 GMT+0000 (GMT),1553273300158,7.76055,10,truth_value_judgements,most
6834,,5950,50,,true,Graduated High School,1553273765791,45,female,English,true,false,5b0b30afe9270900013ba107,All dogs are mammals.,true,9,Fri Mar 22 2019 16:48:20 GMT+0000 (GMT),1553273300158,7.76055,11,truth_value_judgements,all
6834,,5921,50,,implicature,Graduated High School,1553273765791,45,female,English,true,false,5b0b30afe9270900013ba107,Some ants are insects.,false,4,Fri Mar 22 2019 16:48:20 GMT+0000 (GMT),1553273300158,7.76055,12,truth_value_judgements,some
6834,,5904,50,,implicature,Graduated High School,1553273765791,45,female,English,true,false,5b0b30afe9270900013ba107,Modern cars have three wheels.,false,1,Fri Mar 22 2019 16:48:20 GMT+0000 (GMT),1553273300158,7.76055,13,truth_value_judgements,number
6834,,6328,50,,true,Graduated High School,1553273765791,45,female,English,true,false,5b0b30afe9270900013ba107,Some dresses have pockets.,true,2,Fri Mar 22 2019 16:48:20 GMT+0000 (GMT),1553273300158,7.76055,14,truth_value_judgements,some
6834,,5868,50,,implicature,Graduated High School,1553273765791,45,female,English,true,false,5b0b30afe9270900013ba107,Most elephants are mammals.,false,5,Fri Mar 22 2019 16:48:20 GMT+0000 (GMT),1553273300158,7.76055,15,truth_value_judgements,most
6834,,5962,50,,implicature,Graduated High School,1553273765791,45,female,English,true,false,5b0b30afe9270900013ba107,Most snakes are reptiles.,false,3,Fri Mar 22 2019 16:48:20 GMT+0000 (GMT),1553273300158,7.76055,16,truth_value_judgements,most
6834,,5890,50,,true,Graduated High School,1553273765791,45,female,English,true,false,5b0b30afe9270900013ba107,Humans have two eyes.,true,5,Fri Mar 22 2019 16:48:20 GMT+0000 (GMT),1553273300158,7.76055,17,truth_value_judgements,number
6834,,6044,50,,bizarre,Graduated High School,1553273765791,45,female,English,true,false,5b0b30afe9270900013ba107,Most sofas are friendly.,true,4,Fri Mar 22 2019 16:48:20 GMT+0000 (GMT),1553273300158,7.76055,18,truth_value_judgements,most
6834,,5947,50,,true,Graduated High School,1553273765791,45,female,English,true,false,5b0b30afe9270900013ba107,All eagles are birds.,true,8,Fri Mar 22 2019 16:48:20 GMT+0000 (GMT),1553273300158,7.76055,19,truth_value_judgements,all
6834,,5947,50,,bizarre,Graduated High School,1553273765791,45,female,English,true,false,5b0b30afe9270900013ba107,All crayons have noses.,false,2,Fri Mar 22 2019 16:48:20 GMT+0000 (GMT),1553273300158,7.76055,20,truth_value_judgements,all
6834,,6111,50,,true,Graduated High School,1553273765791,45,female,English,true,false,5b0b30afe9270900013ba107,Most people know their parents.,true,1,Fri Mar 22 2019 16:48:20 GMT+0000 (GMT),1553273300158,7.76055,21,truth_value_judgements,most
6834,,5946,50,,bizarre,Graduated High School,1553273765791,45,female,English,true,false,5b0b30afe9270900013ba107,Most tigers are literate.,false,5,Fri Mar 22 2019 16:48:20 GMT+0000 (GMT),1553273300158,7.76055,22,truth_value_judgements,most
6834,,5884,50,,true,Graduated High School,1553273765791,45,female,English,true,false,5b0b30afe9270900013ba107,All crocodiles are reptiles.,true,7,Fri Mar 22 2019 16:48:20 GMT+0000 (GMT),1553273300158,7.76055,23,truth_value_judgements,all
6834,,5942,50,,bizarre,Graduated High School,1553273765791,45,female,English,true,false,5b0b30afe9270900013ba107,Forests last three nights.,false,3,Fri Mar 22 2019 16:48:20 GMT+0000 (GMT),1553273300158,7.76055,24,truth_value_judgements,number
6834,,5907,50,,implicature,Graduated High School,1553273765791,45,female,English,true,false,5b0b30afe9270900013ba107,A human hand has two fingers.,false,2,Fri Mar 22 2019 16:48:20 GMT+0000 (GMT),1553273300158,7.76055,25,truth_value_judgements,number
6834,,5901,50,,implicature,Graduated High School,1553273765791,45,female,English,true,false,5b0b30afe9270900013ba107,Most pigeons are birds.,false,4,Fri Mar 22 2019 16:48:20 GMT+0000 (GMT),1553273300158,7.76055,26,truth_value_judgements,most
6834,,5874,50,,true,Graduated High School,1553273765791,45,female,English,true,false,5b0b30afe9270900013ba107,All beetles are insects.,true,10,Fri Mar 22 2019 16:48:20 GMT+0000 (GMT),1553273300158,7.76055,27,truth_value_judgements,all
6834,,6004,50,,implicature,Graduated High School,1553273765791,45,female,English,true,false,5b0b30afe9270900013ba107,Some lizards are reptiles.,false,2,Fri Mar 22 2019 16:48:20 GMT+0000 (GMT),1553273300158,7.76055,28,truth_value_judgements,some
6834,,6000,50,,implicature,Graduated High School,1553273765791,45,female,English,true,false,5b0b30afe9270900013ba107,A year has 245 days.,false,4,Fri Mar 22 2019 16:48:20 GMT+0000 (GMT),1553273300158,7.76055,29,truth_value_judgements,number
6834,,5917,50,,true,Graduated High School,1553273765791,45,female,English,true,false,5b0b30afe9270900013ba107,A week has seven days.,true,3,Fri Mar 22 2019 16:48:20 GMT+0000 (GMT),1553273300158,7.76055,30,truth_value_judgements,number
6834,,5916,50,,true,Graduated High School,1553273765791,45,female,English,true,false,5b0b30afe9270900013ba107,All refrigerators have doors.,true,5,Fri Mar 22 2019 16:48:20 GMT+0000 (GMT),1553273300158,7.76055,31,truth_value_judgements,all
6834,,5902,50,,bizarre,Graduated High School,1553273765791,45,female,English,true,false,5b0b30afe9270900013ba107,Some books are good to eat.,false,3,Fri Mar 22 2019 16:48:20 GMT+0000 (GMT),1553273300158,7.76055,32,truth_value_judgements,some
6834,,5935,50,,true,Graduated High School,1553273765791,45,female,English,true,false,5b0b30afe9270900013ba107,Some flowers are yellow.,true,1,Fri Mar 22 2019 16:48:20 GMT+0000 (GMT),1553273300158,7.76055,33,truth_value_judgements,some
6834,,5896,50,,true,Graduated High School,1553273765791,45,female,English,true,false,5b0b30afe9270900013ba107,Some children are blond.,true,4,Fri Mar 22 2019 16:48:20 GMT+0000 (GMT),1553273300158,7.76055,34,truth_value_judgements,some
6834,,5938,50,,true,Graduated High School,1553273765791,45,female,English,true,false,5b0b30afe9270900013ba107,Some tools are made of wood..,true,3,Fri Mar 22 2019 16:48:20 GMT+0000 (GMT),1553273300158,7.76055,35,truth_value_judgements,some
6834,,5856,50,,true,Graduated High School,1553273765791,45,female,English,true,false,5b0b30afe9270900013ba107,Cats have four legs.,true,4,Fri Mar 22 2019 16:48:20 GMT+0000 (GMT),1553273300158,7.76055,36,truth_value_judgements,number
6834,,5880,50,,true,Graduated High School,1553273765791,45,female,English,true,false,5b0b30afe9270900013ba107,All elephants have trunks.,true,4,Fri Mar 22 2019 16:48:20 GMT+0000 (GMT),1553273300158,7.76055,37,truth_value_judgements,all
6834,,5892,50,,bizarre,Graduated High School,1553273765791,45,female,English,true,false,5b0b30afe9270900013ba107,Guitars have four legs.,false,2,Fri Mar 22 2019 16:48:20 GMT+0000 (GMT),1553273300158,7.76055,38,truth_value_judgements,number
6834,,5953,50,,true,Graduated High School,1553273765791,45,female,English,true,false,5b0b30afe9270900013ba107,All salmon are fish.,true,6,Fri Mar 22 2019 16:48:20 GMT+0000 (GMT),1553273300158,7.76055,39,truth_value_judgements,all
6834,,5895,50,,bizarre,Graduated High School,1553273765791,45,female,English,true,false,5b0b30afe9270900013ba107,Most chairs are hungry.,false,2,Fri Mar 22 2019 16:48:20 GMT+0000 (GMT),1553273300158,7.76055,40,truth_value_judgements,most
6834,,6148,50,,bizarre,Graduated High School,1553273765791,45,female,English,true,false,5b0b30afe9270900013ba107,All chairs tell time.,false,3,Fri Mar 22 2019 16:48:20 GMT+0000 (GMT),1553273300158,7.76055,41,truth_value_judgements,all
6834,,6271,50,,true,Graduated High School,1553273765791,45,female,English,true,false,5b0b30afe9270900013ba107,Some drinks are made from chocolate.,true,5,Fri Mar 22 2019 16:48:20 GMT+0000 (GMT),1553273300158,7.76055,42,truth_value_judgements,some
6834,,8668,50,,true,Graduated High School,1553273765791,45,female,English,true,false,5b0b30afe9270900013ba107,Most days in a year are working days.,true,3,Fri Mar 22 2019 16:48:20 GMT+0000 (GMT),1553273300158,7.76055,43,truth_value_judgements,most
6834,,6031,50,,bizarre,Graduated High School,1553273765791,45,female,English,true,false,5b0b30afe9270900013ba107,Some fish are made of leaves.,false,1,Fri Mar 22 2019 16:48:20 GMT+0000 (GMT),1553273300158,7.76055,44,truth_value_judgements,some
6834,,5984,50,,bizarre,Graduated High School,1553273765791,45,female,English,true,false,5b0b30afe9270900013ba107,The moon has two ears.,false,1,Fri Mar 22 2019 16:48:20 GMT+0000 (GMT),1553273300158,7.76055,45,truth_value_judgements,number
6834,,6018,50,,bizarre,Graduated High School,1553273765791,45,female,English,true,false,5b0b30afe9270900013ba107,Most motorcycles like music.,false,3,Fri Mar 22 2019 16:48:20 GMT+0000 (GMT),1553273300158,7.76055,46,truth_value_judgements,most
6834,,6054,50,,implicature,Graduated High School,1553273765791,45,female,English,true,false,5b0b30afe9270900013ba107,Monkeys have three bones.,false,5,Fri Mar 22 2019 16:48:20 GMT+0000 (GMT),1553273300158,7.76055,47,truth_value_judgements,number
6834,,5967,50,,bizarre,Graduated High School,1553273765791,45,female,English,true,false,5b0b30afe9270900013ba107,All garages sing.,false,4,Fri Mar 22 2019 16:48:20 GMT+0000 (GMT),1553273300158,7.76055,48,truth_value_judgements,all
6834,,6217,50,,true,Graduated High School,1553273765791,45,female,English,true,false,5b0b30afe9270900013ba107,All books have pages.,true,1,Fri Mar 22 2019 16:48:20 GMT+0000 (GMT),1553273300158,7.76055,49,truth_value_judgements,all
6834,,6892,50,,bizarre,Graduated High School,1553273765791,45,female,English,true,false,5b0b30afe9270900013ba107,Some children are made of feathers.,false,5,Fri Mar 22 2019 16:48:20 GMT+0000 (GMT),1553273300158,7.76055,50,truth_value_judgements,some
6834,,5925,50,,bizarre,Graduated High School,1553273765791,45,female,English,true,false,5b0b30afe9270900013ba107,The earth owns seven books.,false,5,Fri Mar 22 2019 16:48:20 GMT+0000 (GMT),1553273300158,7.76055,51,truth_value_judgements,number
6834,,6005,50,,true,Graduated High School,1553273765791,45,female,English,true,false,5b0b30afe9270900013ba107,Monkeys have five fingers on each hand.,true,2,Fri Mar 22 2019 16:48:20 GMT+0000 (GMT),1553273300158,7.76055,52,truth_value_judgements,number
6834,,5983,50,,true,Graduated High School,1553273765791,45,female,English,true,false,5b0b30afe9270900013ba107,A normal motorcycle has two wheels.,true,1,Fri Mar 22 2019 16:48:20 GMT+0000 (GMT),1553273300158,7.76055,53,truth_value_judgements,number
6834,,6178,50,,implicature,Graduated High School,1553273765791,45,female,English,true,false,5b0b30afe9270900013ba107,Some cats are mammals.,false,5,Fri Mar 22 2019 16:48:20 GMT+0000 (GMT),1553273300158,7.76055,54,truth_value_judgements,some
6834,,6749,50,,true,Graduated High School,1553273765791,45,female,English,true,false,5b0b30afe9270900013ba107,Most people know more than one language.,true,4,Fri Mar 22 2019 16:48:20 GMT+0000 (GMT),1553273300158,7.76055,55,truth_value_judgements,most
6834,,6038,50,,bizarre,Graduated High School,1553273765791,45,female,English,true,false,5b0b30afe9270900013ba107,Most elephants have glasses.,false,1,Fri Mar 22 2019 16:48:20 GMT+0000 (GMT),1553273300158,7.76055,56,truth_value_judgements,most
6834,,5942,50,,true,Graduated High School,1553273765791,45,female,English,true,false,5b0b30afe9270900013ba107,All hammers have a handle.,true,2,Fri Mar 22 2019 16:48:20 GMT+0000 (GMT),1553273300158,7.76055,57,truth_value_judgements,all
6834,,5917,50,,bizarre,Graduated High School,1553273765791,45,female,English,true,false,5b0b30afe9270900013ba107,Some stores are made of bubbles.,false,4,Fri Mar 22 2019 16:48:20 GMT+0000 (GMT),1553273300158,7.76055,58,truth_value_judgements,some
6834,,5947,50,,bizarre,Graduated High School,1553273765791,45,female,English,true,false,5b0b30afe9270900013ba107,All birds have telephones.,false,1,Fri Mar 22 2019 16:48:20 GMT+0000 (GMT),1553273300158,7.76055,59,truth_value_judgements,all
6834,,7606,50,,true,Graduated High School,1553273765791,45,female,English,true,false,5b0b30afe9270900013ba107,Most horses are tame.,false,5,Fri Mar 22 2019 16:48:20 GMT+0000 (GMT),1553273300158,7.76055,60,truth_value_judgements,most
6833,,11076,24,,true,Higher Degree,1553273727867,45,male,Dutch,true,false,561fcb95ed6e5a000bc7eaa2,Some tools are made of wood..,true,3,Fri Mar 22 2019 16:48:52 GMT+0000 (Greenwich Mean Time),1553273332728,6.58565,1,truth_value_judgements,some
6833,,5610,24,,bizarre,Higher Degree,1553273727867,45,male,Dutch,true,false,561fcb95ed6e5a000bc7eaa2,The moon has two ears.,false,1,Fri Mar 22 2019 16:48:52 GMT+0000 (Greenwich Mean Time),1553273332728,6.58565,2,truth_value_judgements,number
6833,,11647,24,,implicature,Higher Degree,1553273727867,45,male,Dutch,true,false,561fcb95ed6e5a000bc7eaa2,Some lizards are reptiles.,false,2,Fri Mar 22 2019 16:48:52 GMT+0000 (Greenwich Mean Time),1553273332728,6.58565,3,truth_value_judgements,some
6833,,6179,24,,true,Higher Degree,1553273727867,45,male,Dutch,true,false,561fcb95ed6e5a000bc7eaa2,All hammers have a handle.,true,2,Fri Mar 22 2019 16:48:52 GMT+0000 (Greenwich Mean Time),1553273332728,6.58565,4,truth_value_judgements,all
6833,,5406,24,,bizarre,Higher Degree,1553273727867,45,male,Dutch,true,false,561fcb95ed6e5a000bc7eaa2,All chairs tell time.,false,3,Fri Mar 22 2019 16:48:52 GMT+0000 (Greenwich Mean Time),1553273332728,6.58565,5,truth_value_judgements,all
6833,,5461,24,,true,Higher Degree,1553273727867,45,male,Dutch,true,false,561fcb95ed6e5a000bc7eaa2,Monkeys have five fingers on each hand.,true,2,Fri Mar 22 2019 16:48:52 GMT+0000 (Greenwich Mean Time),1553273332728,6.58565,6,truth_value_judgements,number
6833,,5561,24,,true,Higher Degree,1553273727867,45,male,Dutch,true,false,561fcb95ed6e5a000bc7eaa2,Most people know their parents.,true,1,Fri Mar 22 2019 16:48:52 GMT+0000 (Greenwich Mean Time),1553273332728,6.58565,7,truth_value_judgements,most
6833,,5629,24,,true,Higher Degree,1553273727867,45,male,Dutch,true,false,561fcb95ed6e5a000bc7eaa2,Some dresses have pockets.,true,2,Fri Mar 22 2019 16:48:52 GMT+0000 (Greenwich Mean Time),1553273332728,6.58565,8,truth_value_judgements,some
6833,,5416,24,,true,Higher Degree,1553273727867,45,male,Dutch,true,false,561fcb95ed6e5a000bc7eaa2,Most birds can fly.,true,2,Fri Mar 22 2019 16:48:52 GMT+0000 (Greenwich Mean Time),1553273332728,6.58565,9,truth_value_judgements,most
6833,,5450,24,,bizarre,Higher Degree,1553273727867,45,male,Dutch,true,false,561fcb95ed6e5a000bc7eaa2,Some fish are made of leaves.,false,1,Fri Mar 22 2019 16:48:52 GMT+0000 (Greenwich Mean Time),1553273332728,6.58565,10,truth_value_judgements,some
6833,,5762,24,,bizarre,Higher Degree,1553273727867,45,male,Dutch,true,false,561fcb95ed6e5a000bc7eaa2,All crayons have noses.,false,2,Fri Mar 22 2019 16:48:52 GMT+0000 (Greenwich Mean Time),1553273332728,6.58565,11,truth_value_judgements,all
6833,,6348,24,,bizarre,Higher Degree,1553273727867,45,male,Dutch,true,false,561fcb95ed6e5a000bc7eaa2,Some children are made of feathers.,false,5,Fri Mar 22 2019 16:48:52 GMT+0000 (Greenwich Mean Time),1553273332728,6.58565,12,truth_value_judgements,some
6833,,5774,24,,implicature,Higher Degree,1553273727867,45,male,Dutch,true,false,561fcb95ed6e5a000bc7eaa2,Some owls are birds.,false,3,Fri Mar 22 2019 16:48:52 GMT+0000 (Greenwich Mean Time),1553273332728,6.58565,13,truth_value_judgements,some
6833,,5977,24,,implicature,Higher Degree,1553273727867,45,male,Dutch,true,false,561fcb95ed6e5a000bc7eaa2,Most pigeons are birds.,false,4,Fri Mar 22 2019 16:48:52 GMT+0000 (Greenwich Mean Time),1553273332728,6.58565,14,truth_value_judgements,most
6833,,5386,24,,bizarre,Higher Degree,1553273727867,45,male,Dutch,true,false,561fcb95ed6e5a000bc7eaa2,Some fruits have computers.,false,2,Fri Mar 22 2019 16:48:52 GMT+0000 (Greenwich Mean Time),1553273332728,6.58565,15,truth_value_judgements,some
6833,,5637,24,,true,Higher Degree,1553273727867,45,male,Dutch,true,false,561fcb95ed6e5a000bc7eaa2,All salmon are fish.,true,6,Fri Mar 22 2019 16:48:52 GMT+0000 (Greenwich Mean Time),1553273332728,6.58565,16,truth_value_judgements,all
6833,,6483,24,,true,Higher Degree,1553273727867,45,male,Dutch,true,false,561fcb95ed6e5a000bc7eaa2,All beetles are insects.,true,10,Fri Mar 22 2019 16:48:52 GMT+0000 (Greenwich Mean Time),1553273332728,6.58565,17,truth_value_judgements,all
6833,,5699,24,,true,Higher Degree,1553273727867,45,male,Dutch,true,false,561fcb95ed6e5a000bc7eaa2,Some children are blond.,true,4,Fri Mar 22 2019 16:48:52 GMT+0000 (Greenwich Mean Time),1553273332728,6.58565,18,truth_value_judgements,some
6833,,5351,24,,bizarre,Higher Degree,1553273727867,45,male,Dutch,true,false,561fcb95ed6e5a000bc7eaa2,Guitars have four legs.,false,2,Fri Mar 22 2019 16:48:52 GMT+0000 (Greenwich Mean Time),1553273332728,6.58565,19,truth_value_judgements,number
6833,,6676,24,,implicature,Higher Degree,1553273727867,45,male,Dutch,true,false,561fcb95ed6e5a000bc7eaa2,Most elephants are mammals.,false,5,Fri Mar 22 2019 16:48:52 GMT+0000 (Greenwich Mean Time),1553273332728,6.58565,20,truth_value_judgements,most
6833,,5314,24,,bizarre,Higher Degree,1553273727867,45,male,Dutch,true,false,561fcb95ed6e5a000bc7eaa2,Most sofas are friendly.,false,4,Fri Mar 22 2019 16:48:52 GMT+0000 (Greenwich Mean Time),1553273332728,6.58565,21,truth_value_judgements,most
6833,,5309,24,,bizarre,Higher Degree,1553273727867,45,male,Dutch,true,false,561fcb95ed6e5a000bc7eaa2,All couches have windows.,false,5,Fri Mar 22 2019 16:48:52 GMT+0000 (Greenwich Mean Time),1553273332728,6.58565,22,truth_value_judgements,all
6833,,5394,24,,bizarre,Higher Degree,1553273727867,45,male,Dutch,true,false,561fcb95ed6e5a000bc7eaa2,Forests last three nights.,false,3,Fri Mar 22 2019 16:48:52 GMT+0000 (Greenwich Mean Time),1553273332728,6.58565,23,truth_value_judgements,number
6833,,10849,24,,implicature,Higher Degree,1553273727867,45,male,Dutch,true,false,561fcb95ed6e5a000bc7eaa2,Some cats are mammals.,false,5,Fri Mar 22 2019 16:48:52 GMT+0000 (Greenwich Mean Time),1553273332728,6.58565,24,truth_value_judgements,some
6833,,10396,24,,true,Higher Degree,1553273727867,45,male,Dutch,true,false,561fcb95ed6e5a000bc7eaa2,All robins have wings.,true,3,Fri Mar 22 2019 16:48:52 GMT+0000 (Greenwich Mean Time),1553273332728,6.58565,25,truth_value_judgements,all
6833,,5328,24,,implicature,Higher Degree,1553273727867,45,male,Dutch,true,false,561fcb95ed6e5a000bc7eaa2,Most sharks are fish.,false,1,Fri Mar 22 2019 16:48:52 GMT+0000 (Greenwich Mean Time),1553273332728,6.58565,26,truth_value_judgements,most
6833,,5348,24,,true,Higher Degree,1553273727867,45,male,Dutch,true,false,561fcb95ed6e5a000bc7eaa2,Some drinks are made from chocolate.,true,5,Fri Mar 22 2019 16:48:52 GMT+0000 (Greenwich Mean Time),1553273332728,6.58565,27,truth_value_judgements,some
6833,,5354,24,,bizarre,Higher Degree,1553273727867,45,male,Dutch,true,false,561fcb95ed6e5a000bc7eaa2,Most motorcycles like music.,false,3,Fri Mar 22 2019 16:48:52 GMT+0000 (Greenwich Mean Time),1553273332728,6.58565,28,truth_value_judgements,most
6833,,5337,24,,bizarre,Higher Degree,1553273727867,45,male,Dutch,true,false,561fcb95ed6e5a000bc7eaa2,All garages sing.,false,4,Fri Mar 22 2019 16:48:52 GMT+0000 (Greenwich Mean Time),1553273332728,6.58565,29,truth_value_judgements,all
6833,,5305,24,,true,Higher Degree,1553273727867,45,male,Dutch,true,false,561fcb95ed6e5a000bc7eaa2,Most days in a year are working days.,true,3,Fri Mar 22 2019 16:48:52 GMT+0000 (Greenwich Mean Time),1553273332728,6.58565,30,truth_value_judgements,most
6833,,5322,24,,implicature,Higher Degree,1553273727867,45,male,Dutch,true,false,561fcb95ed6e5a000bc7eaa2,A year has 245 days.,false,4,Fri Mar 22 2019 16:48:52 GMT+0000 (Greenwich Mean Time),1553273332728,6.58565,31,truth_value_judgements,number
6833,,5302,24,,true,Higher Degree,1553273727867,45,male,Dutch,true,false,561fcb95ed6e5a000bc7eaa2,Humans have two eyes.,true,5,Fri Mar 22 2019 16:48:52 GMT+0000 (Greenwich Mean Time),1553273332728,6.58565,32,truth_value_judgements,number
6833,,5336,24,,true,Higher Degree,1553273727867,45,male,Dutch,true,false,561fcb95ed6e5a000bc7eaa2,Most horses are tame.,true,5,Fri Mar 22 2019 16:48:52 GMT+0000 (Greenwich Mean Time),1553273332728,6.58565,33,truth_value_judgements,most
6833,,5349,24,,true,Higher Degree,1553273727867,45,male,Dutch,true,false,561fcb95ed6e5a000bc7eaa2,All eagles are birds.,true,8,Fri Mar 22 2019 16:48:52 GMT+0000 (Greenwich Mean Time),1553273332728,6.58565,34,truth_value_judgements,all
6833,,5824,24,,bizarre,Higher Degree,1553273727867,45,male,Dutch,true,false,561fcb95ed6e5a000bc7eaa2,All birds have telephones.,false,1,Fri Mar 22 2019 16:48:52 GMT+0000 (Greenwich Mean Time),1553273332728,6.58565,35,truth_value_judgements,all
6833,,5431,24,,true,Higher Degree,1553273727867,45,male,Dutch,true,false,561fcb95ed6e5a000bc7eaa2,All dogs are mammals.,true,9,Fri Mar 22 2019 16:48:52 GMT+0000 (Greenwich Mean Time),1553273332728,6.58565,36,truth_value_judgements,all
6833,,5331,24,,true,Higher Degree,1553273727867,45,male,Dutch,true,false,561fcb95ed6e5a000bc7eaa2,All refrigerators have doors.,true,5,Fri Mar 22 2019 16:48:52 GMT+0000 (Greenwich Mean Time),1553273332728,6.58565,37,truth_value_judgements,all
6833,,6006,24,,implicature,Higher Degree,1553273727867,45,male,Dutch,true,false,561fcb95ed6e5a000bc7eaa2,A human hand has two fingers.,false,2,Fri Mar 22 2019 16:48:52 GMT+0000 (Greenwich Mean Time),1553273332728,6.58565,38,truth_value_judgements,number
6833,,5379,24,,bizarre,Higher Degree,1553273727867,45,male,Dutch,true,false,561fcb95ed6e5a000bc7eaa2,Most elephants have glasses.,false,1,Fri Mar 22 2019 16:48:52 GMT+0000 (Greenwich Mean Time),1553273332728,6.58565,39,truth_value_judgements,most
6833,,5453,24,,bizarre,Higher Degree,1553273727867,45,male,Dutch,true,false,561fcb95ed6e5a000bc7eaa2,Some books are good to eat.,false,3,Fri Mar 22 2019 16:48:52 GMT+0000 (Greenwich Mean Time),1553273332728,6.58565,40,truth_value_judgements,some
6833,,6641,24,,bizarre,Higher Degree,1553273727867,45,male,Dutch,true,false,561fcb95ed6e5a000bc7eaa2,The earth owns seven books.,false,5,Fri Mar 22 2019 16:48:52 GMT+0000 (Greenwich Mean Time),1553273332728,6.58565,41,truth_value_judgements,number
6833,,5262,24,,true,Higher Degree,1553273727867,45,male,Dutch,true,false,561fcb95ed6e5a000bc7eaa2,A week has seven days.,true,3,Fri Mar 22 2019 16:48:52 GMT+0000 (Greenwich Mean Time),1553273332728,6.58565,42,truth_value_judgements,number
6833,,8887,24,,true,Higher Degree,1553273727867,45,male,Dutch,true,false,561fcb95ed6e5a000bc7eaa2,Most people know more than one language.,false,4,Fri Mar 22 2019 16:48:52 GMT+0000 (Greenwich Mean Time),1553273332728,6.58565,43,truth_value_judgements,most
6833,,5317,24,,true,Higher Degree,1553273727867,45,male,Dutch,true,false,561fcb95ed6e5a000bc7eaa2,All elephants have trunks.,true,4,Fri Mar 22 2019 16:48:52 GMT+0000 (Greenwich Mean Time),1553273332728,6.58565,44,truth_value_judgements,all
6833,,5309,24,,bizarre,Higher Degree,1553273727867,45,male,Dutch,true,false,561fcb95ed6e5a000bc7eaa2,Most chairs are hungry.,false,2,Fri Mar 22 2019 16:48:52 GMT+0000 (Greenwich Mean Time),1553273332728,6.58565,45,truth_value_judgements,most
6833,,5333,24,,implicature,Higher Degree,1553273727867,45,male,Dutch,true,false,561fcb95ed6e5a000bc7eaa2,Most horses are mammals.,false,2,Fri Mar 22 2019 16:48:52 GMT+0000 (Greenwich Mean Time),1553273332728,6.58565,46,truth_value_judgements,most
6833,,5352,24,,true,Higher Degree,1553273727867,45,male,Dutch,true,false,561fcb95ed6e5a000bc7eaa2,All books have pages.,true,1,Fri Mar 22 2019 16:48:52 GMT+0000 (Greenwich Mean Time),1553273332728,6.58565,47,truth_value_judgements,all
6833,,5366,24,,implicature,Higher Degree,1553273727867,45,male,Dutch,true,false,561fcb95ed6e5a000bc7eaa2,Some trouts are fish.,false,1,Fri Mar 22 2019 16:48:52 GMT+0000 (Greenwich Mean Time),1553273332728,6.58565,48,truth_value_judgements,some
6833,,5369,24,,implicature,Higher Degree,1553273727867,45,male,Dutch,true,false,561fcb95ed6e5a000bc7eaa2,Monkeys have three bones.,false,5,Fri Mar 22 2019 16:48:52 GMT+0000 (Greenwich Mean Time),1553273332728,6.58565,49,truth_value_judgements,number
6833,,5286,24,,implicature,Higher Degree,1553273727867,45,male,Dutch,true,false,561fcb95ed6e5a000bc7eaa2,Modern cars have three wheels.,false,1,Fri Mar 22 2019 16:48:52 GMT+0000 (Greenwich Mean Time),1553273332728,6.58565,50,truth_value_judgements,number
6833,,5302,24,,bizarre,Higher Degree,1553273727867,45,male,Dutch,true,false,561fcb95ed6e5a000bc7eaa2,A week consists of five people.,false,4,Fri Mar 22 2019 16:48:52 GMT+0000 (Greenwich Mean Time),1553273332728,6.58565,51,truth_value_judgements,number
6833,,5305,24,,true,Higher Degree,1553273727867,45,male,Dutch,true,false,561fcb95ed6e5a000bc7eaa2,A normal motorcycle has two wheels.,true,1,Fri Mar 22 2019 16:48:52 GMT+0000 (Greenwich Mean Time),1553273332728,6.58565,52,truth_value_judgements,number
6833,,5442,24,,bizarre,Higher Degree,1553273727867,45,male,Dutch,true,false,561fcb95ed6e5a000bc7eaa2,Most tigers are literate.,false,5,Fri Mar 22 2019 16:48:52 GMT+0000 (Greenwich Mean Time),1553273332728,6.58565,53,truth_value_judgements,most
6833,,5350,24,,true,Higher Degree,1553273727867,45,male,Dutch,true,false,561fcb95ed6e5a000bc7eaa2,All crocodiles are reptiles.,true,7,Fri Mar 22 2019 16:48:52 GMT+0000 (Greenwich Mean Time),1553273332728,6.58565,54,truth_value_judgements,all
6833,,5495,24,,implicature,Higher Degree,1553273727867,45,male,Dutch,true,false,561fcb95ed6e5a000bc7eaa2,Most snakes are reptiles.,false,3,Fri Mar 22 2019 16:48:52 GMT+0000 (Greenwich Mean Time),1553273332728,6.58565,55,truth_value_judgements,most
6833,,5312,24,,true,Higher Degree,1553273727867,45,male,Dutch,true,false,561fcb95ed6e5a000bc7eaa2,Cats have four legs.,true,4,Fri Mar 22 2019 16:48:52 GMT+0000 (Greenwich Mean Time),1553273332728,6.58565,56,truth_value_judgements,number
6833,,5308,24,,implicature,Higher Degree,1553273727867,45,male,Dutch,true,false,561fcb95ed6e5a000bc7eaa2,Some ants are insects.,false,4,Fri Mar 22 2019 16:48:52 GMT+0000 (Greenwich Mean Time),1553273332728,6.58565,57,truth_value_judgements,some
6833,,5381,24,,true,Higher Degree,1553273727867,45,male,Dutch,true,false,561fcb95ed6e5a000bc7eaa2,Some flowers are yellow.,true,1,Fri Mar 22 2019 16:48:52 GMT+0000 (Greenwich Mean Time),1553273332728,6.58565,58,truth_value_judgements,some
6833,,5708,24,,bizarre,Higher Degree,1553273727867,45,male,Dutch,true,false,561fcb95ed6e5a000bc7eaa2,Some stores are made of bubbles.,false,4,Fri Mar 22 2019 16:48:52 GMT+0000 (Greenwich Mean Time),1553273332728,6.58565,59,truth_value_judgements,some
6833,,5351,24,,implicature,Higher Degree,1553273727867,45,male,Dutch,true,false,561fcb95ed6e5a000bc7eaa2,The universe contains three planets.,false,3,Fri Mar 22 2019 16:48:52 GMT+0000 (Greenwich Mean Time),1553273332728,6.58565,60,truth_value_judgements,number
6832,,14200,19,,true,Graduated High School,1553273661096,45,female,English,true,false,5b85570576f6490001cc1b86,Most horses are tame.,true,5,Fri Mar 22 2019 16:46:54 GMT+0000 (GMT),1553273214513,7.44305,1,truth_value_judgements,most
6832,,5877,19,,bizarre,Graduated High School,1553273661096,45,female,English,true,false,5b85570576f6490001cc1b86,The earth owns seven books.,false,5,Fri Mar 22 2019 16:46:54 GMT+0000 (GMT),1553273214513,7.44305,2,truth_value_judgements,number
6832,,9882,19,,true,Graduated High School,1553273661096,45,female,English,true,false,5b85570576f6490001cc1b86,All hammers have a handle.,true,2,Fri Mar 22 2019 16:46:54 GMT+0000 (GMT),1553273214513,7.44305,3,truth_value_judgements,all
6832,,9474,19,,bizarre,Graduated High School,1553273661096,45,female,English,true,false,5b85570576f6490001cc1b86,Some fruits have computers.,true,2,Fri Mar 22 2019 16:46:54 GMT+0000 (GMT),1553273214513,7.44305,4,truth_value_judgements,some
6832,,10612,19,,bizarre,Graduated High School,1553273661096,45,female,English,true,false,5b85570576f6490001cc1b86,Some fish are made of leaves.,false,1,Fri Mar 22 2019 16:46:54 GMT+0000 (GMT),1553273214513,7.44305,5,truth_value_judgements,some
6832,,7943,19,,bizarre,Graduated High School,1553273661096,45,female,English,true,false,5b85570576f6490001cc1b86,Forests last three nights.,false,3,Fri Mar 22 2019 16:46:54 GMT+0000 (GMT),1553273214513,7.44305,6,truth_value_judgements,number
6832,,6712,19,,true,Graduated High School,1553273661096,45,female,English,true,false,5b85570576f6490001cc1b86,Most birds can fly.,true,2,Fri Mar 22 2019 16:46:54 GMT+0000 (GMT),1553273214513,7.44305,7,truth_value_judgements,most
6832,,6572,19,,true,Graduated High School,1553273661096,45,female,English,true,false,5b85570576f6490001cc1b86,All beetles are insects.,true,10,Fri Mar 22 2019 16:46:54 GMT+0000 (GMT),1553273214513,7.44305,8,truth_value_judgements,all
6832,,6027,19,,true,Graduated High School,1553273661096,45,female,English,true,false,5b85570576f6490001cc1b86,Some children are blond.,true,4,Fri Mar 22 2019 16:46:54 GMT+0000 (GMT),1553273214513,7.44305,9,truth_value_judgements,some
6832,,5636,19,,implicature,Graduated High School,1553273661096,45,female,English,true,false,5b85570576f6490001cc1b86,Some lizards are reptiles.,false,2,Fri Mar 22 2019 16:46:54 GMT+0000 (GMT),1553273214513,7.44305,10,truth_value_judgements,some
6832,,6559,19,,true,Graduated High School,1553273661096,45,female,English,true,false,5b85570576f6490001cc1b86,Most people know their parents.,true,1,Fri Mar 22 2019 16:46:54 GMT+0000 (GMT),1553273214513,7.44305,11,truth_value_judgements,most
6832,,5740,19,,implicature,Graduated High School,1553273661096,45,female,English,true,false,5b85570576f6490001cc1b86,Most elephants are mammals.,false,5,Fri Mar 22 2019 16:46:54 GMT+0000 (GMT),1553273214513,7.44305,12,truth_value_judgements,most
6832,,5764,19,,implicature,Graduated High School,1553273661096,45,female,English,true,false,5b85570576f6490001cc1b86,The universe contains three planets.,false,3,Fri Mar 22 2019 16:46:54 GMT+0000 (GMT),1553273214513,7.44305,13,truth_value_judgements,number
6832,,5530,19,,implicature,Graduated High School,1553273661096,45,female,English,true,false,5b85570576f6490001cc1b86,Most sharks are fish.,false,1,Fri Mar 22 2019 16:46:54 GMT+0000 (GMT),1553273214513,7.44305,14,truth_value_judgements,most
6832,,5530,19,,bizarre,Graduated High School,1553273661096,45,female,English,true,false,5b85570576f6490001cc1b86,Most motorcycles like music.,false,3,Fri Mar 22 2019 16:46:54 GMT+0000 (GMT),1553273214513,7.44305,15,truth_value_judgements,most
6832,,5612,19,,true,Graduated High School,1553273661096,45,female,English,true,false,5b85570576f6490001cc1b86,A normal motorcycle has two wheels.,true,1,Fri Mar 22 2019 16:46:54 GMT+0000 (GMT),1553273214513,7.44305,16,truth_value_judgements,number
6832,,5635,19,,bizarre,Graduated High School,1553273661096,45,female,English,true,false,5b85570576f6490001cc1b86,All chairs tell time.,false,3,Fri Mar 22 2019 16:46:54 GMT+0000 (GMT),1553273214513,7.44305,17,truth_value_judgements,all
6832,,5473,19,,implicature,Graduated High School,1553273661096,45,female,English,true,false,5b85570576f6490001cc1b86,Most horses are mammals.,false,2,Fri Mar 22 2019 16:46:54 GMT+0000 (GMT),1553273214513,7.44305,18,truth_value_judgements,most
6832,,5458,19,,implicature,Graduated High School,1553273661096,45,female,English,true,false,5b85570576f6490001cc1b86,Some trouts are fish.,false,1,Fri Mar 22 2019 16:46:54 GMT+0000 (GMT),1553273214513,7.44305,19,truth_value_judgements,some
6832,,5764,19,,true,Graduated High School,1553273661096,45,female,English,true,false,5b85570576f6490001cc1b86,All eagles are birds.,true,8,Fri Mar 22 2019 16:46:54 GMT+0000 (GMT),1553273214513,7.44305,20,truth_value_judgements,all
6832,,5804,19,,true,Graduated High School,1553273661096,45,female,English,true,false,5b85570576f6490001cc1b86,Some dresses have pockets.,true,2,Fri Mar 22 2019 16:46:54 GMT+0000 (GMT),1553273214513,7.44305,21,truth_value_judgements,some
6832,,6935,19,,bizarre,Graduated High School,1553273661096,45,female,English,true,false,5b85570576f6490001cc1b86,All garages sing.,false,4,Fri Mar 22 2019 16:46:54 GMT+0000 (GMT),1553273214513,7.44305,22,truth_value_judgements,all
6832,,5779,19,,implicature,Graduated High School,1553273661096,45,female,English,true,false,5b85570576f6490001cc1b86,Modern cars have three wheels.,false,1,Fri Mar 22 2019 16:46:54 GMT+0000 (GMT),1553273214513,7.44305,23,truth_value_judgements,number
6832,,6442,19,,true,Graduated High School,1553273661096,45,female,English,true,false,5b85570576f6490001cc1b86,Humans have two eyes.,true,5,Fri Mar 22 2019 16:46:54 GMT+0000 (GMT),1553273214513,7.44305,24,truth_value_judgements,number
6832,,5709,19,,bizarre,Graduated High School,1553273661096,45,female,English,true,false,5b85570576f6490001cc1b86,Most tigers are literate.,false,5,Fri Mar 22 2019 16:46:54 GMT+0000 (GMT),1553273214513,7.44305,25,truth_value_judgements,most
6832,,5587,19,,true,Graduated High School,1553273661096,45,female,English,true,false,5b85570576f6490001cc1b86,Some flowers are yellow.,true,1,Fri Mar 22 2019 16:46:54 GMT+0000 (GMT),1553273214513,7.44305,26,truth_value_judgements,some
6832,,5740,19,,implicature,Graduated High School,1553273661096,45,female,English,true,false,5b85570576f6490001cc1b86,A year has 245 days.,false,4,Fri Mar 22 2019 16:46:54 GMT+0000 (GMT),1553273214513,7.44305,27,truth_value_judgements,number
6832,,5538,19,,true,Graduated High School,1553273661096,45,female,English,true,false,5b85570576f6490001cc1b86,All dogs are mammals.,true,9,Fri Mar 22 2019 16:46:54 GMT+0000 (GMT),1553273214513,7.44305,28,truth_value_judgements,all
6832,,7806,19,,true,Graduated High School,1553273661096,45,female,English,true,false,5b85570576f6490001cc1b86,All elephants have trunks.,true,4,Fri Mar 22 2019 16:46:54 GMT+0000 (GMT),1553273214513,7.44305,29,truth_value_judgements,all
6832,,5619,19,,bizarre,Graduated High School,1553273661096,45,female,English,true,false,5b85570576f6490001cc1b86,The moon has two ears.,false,1,Fri Mar 22 2019 16:46:54 GMT+0000 (GMT),1553273214513,7.44305,30,truth_value_judgements,number
6832,,5425,19,,true,Graduated High School,1553273661096,45,female,English,true,false,5b85570576f6490001cc1b86,All salmon are fish.,true,6,Fri Mar 22 2019 16:46:54 GMT+0000 (GMT),1553273214513,7.44305,31,truth_value_judgements,all
6832,,5495,19,,implicature,Graduated High School,1553273661096,45,female,English,true,false,5b85570576f6490001cc1b86,A human hand has two fingers.,false,2,Fri Mar 22 2019 16:46:54 GMT+0000 (GMT),1553273214513,7.44305,32,truth_value_judgements,number
6832,,6095,19,,true,Graduated High School,1553273661096,45,female,English,true,false,5b85570576f6490001cc1b86,Cats have four legs.,true,4,Fri Mar 22 2019 16:46:54 GMT+0000 (GMT),1553273214513,7.44305,33,truth_value_judgements,number
6832,,7096,19,,true,Graduated High School,1553273661096,45,female,English,true,false,5b85570576f6490001cc1b86,Most days in a year are working days.,true,3,Fri Mar 22 2019 16:46:54 GMT+0000 (GMT),1553273214513,7.44305,34,truth_value_judgements,most
6832,,5650,19,,true,Graduated High School,1553273661096,45,female,English,true,false,5b85570576f6490001cc1b86,All robins have wings.,true,3,Fri Mar 22 2019 16:46:54 GMT+0000 (GMT),1553273214513,7.44305,35,truth_value_judgements,all
6832,,5981,19,,true,Graduated High School,1553273661096,45,female,English,true,false,5b85570576f6490001cc1b86,Some drinks are made from chocolate.,true,5,Fri Mar 22 2019 16:46:54 GMT+0000 (GMT),1553273214513,7.44305,36,truth_value_judgements,some
6832,,9565,19,,bizarre,Graduated High School,1553273661096,45,female,English,true,false,5b85570576f6490001cc1b86,Some children are made of feathers.,false,5,Fri Mar 22 2019 16:46:54 GMT+0000 (GMT),1553273214513,7.44305,37,truth_value_judgements,some
6832,,5666,19,,bizarre,Graduated High School,1553273661096,45,female,English,true,false,5b85570576f6490001cc1b86,All birds have telephones.,false,1,Fri Mar 22 2019 16:46:54 GMT+0000 (GMT),1553273214513,7.44305,38,truth_value_judgements,all
6832,,5538,19,,bizarre,Graduated High School,1553273661096,45,female,English,true,false,5b85570576f6490001cc1b86,Most chairs are hungry.,false,2,Fri Mar 22 2019 16:46:54 GMT+0000 (GMT),1553273214513,7.44305,39,truth_value_judgements,most
6832,,5527,19,,true,Graduated High School,1553273661096,45,female,English,true,false,5b85570576f6490001cc1b86,All crocodiles are reptiles.,true,7,Fri Mar 22 2019 16:46:54 GMT+0000 (GMT),1553273214513,7.44305,40,truth_value_judgements,all
6832,,5828,19,,implicature,Graduated High School,1553273661096,45,female,English,true,false,5b85570576f6490001cc1b86,Most pigeons are birds.,false,4,Fri Mar 22 2019 16:46:54 GMT+0000 (GMT),1553273214513,7.44305,41,truth_value_judgements,most
6832,,6757,19,,bizarre,Graduated High School,1553273661096,45,female,English,true,false,5b85570576f6490001cc1b86,A week consists of five people.,false,4,Fri Mar 22 2019 16:46:54 GMT+0000 (GMT),1553273214513,7.44305,42,truth_value_judgements,number
6832,,5497,19,,true,Graduated High School,1553273661096,45,female,English,true,false,5b85570576f6490001cc1b86,All books have pages.,true,1,Fri Mar 22 2019 16:46:54 GMT+0000 (GMT),1553273214513,7.44305,43,truth_value_judgements,all
6832,,7120,19,,implicature,Graduated High School,1553273661096,45,female,English,true,false,5b85570576f6490001cc1b86,Some ants are insects.,false,4,Fri Mar 22 2019 16:46:54 GMT+0000 (GMT),1553273214513,7.44305,44,truth_value_judgements,some
6832,,5660,19,,implicature,Graduated High School,1553273661096,45,female,English,true,false,5b85570576f6490001cc1b86,Some owls are birds.,false,3,Fri Mar 22 2019 16:46:54 GMT+0000 (GMT),1553273214513,7.44305,45,truth_value_judgements,some
6832,,5554,19,,bizarre,Graduated High School,1553273661096,45,female,English,true,false,5b85570576f6490001cc1b86,Guitars have four legs.,false,2,Fri Mar 22 2019 16:46:54 GMT+0000 (GMT),1553273214513,7.44305,46,truth_value_judgements,number
6832,,5505,19,,bizarre,Graduated High School,1553273661096,45,female,English,true,false,5b85570576f6490001cc1b86,Most elephants have glasses.,false,1,Fri Mar 22 2019 16:46:54 GMT+0000 (GMT),1553273214513,7.44305,47,truth_value_judgements,most
6832,,5595,19,,bizarre,Graduated High School,1553273661096,45,female,English,true,false,5b85570576f6490001cc1b86,Some books are good to eat.,false,3,Fri Mar 22 2019 16:46:54 GMT+0000 (GMT),1553273214513,7.44305,48,truth_value_judgements,some
6832,,5957,19,,bizarre,Graduated High School,1553273661096,45,female,English,true,false,5b85570576f6490001cc1b86,All crayons have noses.,false,2,Fri Mar 22 2019 16:46:54 GMT+0000 (GMT),1553273214513,7.44305,49,truth_value_judgements,all
6832,,5601,19,,true,Graduated High School,1553273661096,45,female,English,true,false,5b85570576f6490001cc1b86,Some tools are made of wood..,true,3,Fri Mar 22 2019 16:46:54 GMT+0000 (GMT),1553273214513,7.44305,50,truth_value_judgements,some
6832,,6151,19,,true,Graduated High School,1553273661096,45,female,English,true,false,5b85570576f6490001cc1b86,Most people know more than one language.,false,4,Fri Mar 22 2019 16:46:54 GMT+0000 (GMT),1553273214513,7.44305,51,truth_value_judgements,most
6832,,6677,19,,true,Graduated High School,1553273661096,45,female,English,true,false,5b85570576f6490001cc1b86,A week has seven days.,true,3,Fri Mar 22 2019 16:46:54 GMT+0000 (GMT),1553273214513,7.44305,52,truth_value_judgements,number
6832,,6675,19,,implicature,Graduated High School,1553273661096,45,female,English,true,false,5b85570576f6490001cc1b86,Some cats are mammals.,false,5,Fri Mar 22 2019 16:46:54 GMT+0000 (GMT),1553273214513,7.44305,53,truth_value_judgements,some
6832,,14792,19,,implicature,Graduated High School,1553273661096,45,female,English,true,false,5b85570576f6490001cc1b86,Monkeys have three bones.,false,5,Fri Mar 22 2019 16:46:54 GMT+0000 (GMT),1553273214513,7.44305,54,truth_value_judgements,number
6832,,5561,19,,true,Graduated High School,1553273661096,45,female,English,true,false,5b85570576f6490001cc1b86,Monkeys have five fingers on each hand.,true,2,Fri Mar 22 2019 16:46:54 GMT+0000 (GMT),1553273214513,7.44305,55,truth_value_judgements,number
6832,,6047,19,,bizarre,Graduated High School,1553273661096,45,female,English,true,false,5b85570576f6490001cc1b86,All couches have windows.,false,5,Fri Mar 22 2019 16:46:54 GMT+0000 (GMT),1553273214513,7.44305,56,truth_value_judgements,all
6832,,13993,19,,true,Graduated High School,1553273661096,45,female,English,true,false,5b85570576f6490001cc1b86,All refrigerators have doors.,true,5,Fri Mar 22 2019 16:46:54 GMT+0000 (GMT),1553273214513,7.44305,57,truth_value_judgements,all
6832,,5876,19,,implicature,Graduated High School,1553273661096,45,female,English,true,false,5b85570576f6490001cc1b86,Most snakes are reptiles.,false,3,Fri Mar 22 2019 16:46:54 GMT+0000 (GMT),1553273214513,7.44305,58,truth_value_judgements,most
6832,,5467,19,,bizarre,Graduated High School,1553273661096,45,female,English,true,false,5b85570576f6490001cc1b86,Some stores are made of bubbles.,false,4,Fri Mar 22 2019 16:46:54 GMT+0000 (GMT),1553273214513,7.44305,59,truth_value_judgements,some
6832,,5692,19,,bizarre,Graduated High School,1553273661096,45,female,English,true,false,5b85570576f6490001cc1b86,Most sofas are friendly.,false,4,Fri Mar 22 2019 16:46:54 GMT+0000 (GMT),1553273214513,7.44305,60,truth_value_judgements,most
6831,,6484,19,,true,Graduated High School,1553273432526,45,female,English ,true,false,5c1d27035c1e0b00016312b9,All refrigerators have doors.,true,5,Fri Mar 22 2019 16:40:11 GMT+0000 (GMT),1553272811071,10.357583333333332,1,truth_value_judgements,all
6831,,9045,19,,true,Graduated High School,1553273432526,45,female,English ,true,false,5c1d27035c1e0b00016312b9,Most birds can fly.,true,2,Fri Mar 22 2019 16:40:11 GMT+0000 (GMT),1553272811071,10.357583333333332,2,truth_value_judgements,most
6831,,6342,19,,implicature,Graduated High School,1553273432526,45,female,English ,true,false,5c1d27035c1e0b00016312b9,The universe contains three planets.,false,3,Fri Mar 22 2019 16:40:11 GMT+0000 (GMT),1553272811071,10.357583333333332,3,truth_value_judgements,number
6831,,10422,19,,true,Graduated High School,1553273432526,45,female,English ,true,false,5c1d27035c1e0b00016312b9,Most horses are tame.,false,5,Fri Mar 22 2019 16:40:11 GMT+0000 (GMT),1553272811071,10.357583333333332,4,truth_value_judgements,most
6831,,8270,19,,bizarre,Graduated High School,1553273432526,45,female,English ,true,false,5c1d27035c1e0b00016312b9,All garages sing.,false,4,Fri Mar 22 2019 16:40:11 GMT+0000 (GMT),1553272811071,10.357583333333332,5,truth_value_judgements,all
6831,,7757,19,,true,Graduated High School,1553273432526,45,female,English ,true,false,5c1d27035c1e0b00016312b9,All dogs are mammals.,true,9,Fri Mar 22 2019 16:40:11 GMT+0000 (GMT),1553272811071,10.357583333333332,6,truth_value_judgements,all
6831,,8251,19,,true,Graduated High School,1553273432526,45,female,English ,true,false,5c1d27035c1e0b00016312b9,Some flowers are yellow.,true,1,Fri Mar 22 2019 16:40:11 GMT+0000 (GMT),1553272811071,10.357583333333332,7,truth_value_judgements,some
6831,,9774,19,,bizarre,Graduated High School,1553273432526,45,female,English ,true,false,5c1d27035c1e0b00016312b9,Some stores are made of bubbles.,false,4,Fri Mar 22 2019 16:40:11 GMT+0000 (GMT),1553272811071,10.357583333333332,8,truth_value_judgements,some
6831,,6792,19,,true,Graduated High School,1553273432526,45,female,English ,true,false,5c1d27035c1e0b00016312b9,All hammers have a handle.,true,2,Fri Mar 22 2019 16:40:11 GMT+0000 (GMT),1553272811071,10.357583333333332,9,truth_value_judgements,all
6831,,18515,19,,bizarre,Graduated High School,1553273432526,45,female,English ,true,false,5c1d27035c1e0b00016312b9,Some books are good to eat.,false,3,Fri Mar 22 2019 16:40:11 GMT+0000 (GMT),1553272811071,10.357583333333332,10,truth_value_judgements,some
6831,,6972,19,,implicature,Graduated High School,1553273432526,45,female,English ,true,false,5c1d27035c1e0b00016312b9,Most snakes are reptiles.,true,3,Fri Mar 22 2019 16:40:11 GMT+0000 (GMT),1553272811071,10.357583333333332,11,truth_value_judgements,most
6831,,9172,19,,true,Graduated High School,1553273432526,45,female,English ,true,false,5c1d27035c1e0b00016312b9,All salmon are fish.,true,6,Fri Mar 22 2019 16:40:11 GMT+0000 (GMT),1553272811071,10.357583333333332,12,truth_value_judgements,all
6831,,10449,19,,bizarre,Graduated High School,1553273432526,45,female,English ,true,false,5c1d27035c1e0b00016312b9,A week consists of five people.,false,4,Fri Mar 22 2019 16:40:11 GMT+0000 (GMT),1553272811071,10.357583333333332,13,truth_value_judgements,number
6831,,6940,19,,true,Graduated High School,1553273432526,45,female,English ,true,false,5c1d27035c1e0b00016312b9,Humans have two eyes.,true,5,Fri Mar 22 2019 16:40:11 GMT+0000 (GMT),1553272811071,10.357583333333332,14,truth_value_judgements,number
6831,,9583,19,,true,Graduated High School,1553273432526,45,female,English ,true,false,5c1d27035c1e0b00016312b9,Some drinks are made from chocolate.,true,5,Fri Mar 22 2019 16:40:11 GMT+0000 (GMT),1553272811071,10.357583333333332,15,truth_value_judgements,some
6831,,6590,19,,bizarre,Graduated High School,1553273432526,45,female,English ,true,false,5c1d27035c1e0b00016312b9,Guitars have four legs.,false,2,Fri Mar 22 2019 16:40:11 GMT+0000 (GMT),1553272811071,10.357583333333332,16,truth_value_judgements,number
6831,,6596,19,,true,Graduated High School,1553273432526,45,female,English ,true,false,5c1d27035c1e0b00016312b9,All books have pages.,true,1,Fri Mar 22 2019 16:40:11 GMT+0000 (GMT),1553272811071,10.357583333333332,17,truth_value_judgements,all
6831,,8659,19,,bizarre,Graduated High School,1553273432526,45,female,English ,true,false,5c1d27035c1e0b00016312b9,All birds have telephones.,false,1,Fri Mar 22 2019 16:40:11 GMT+0000 (GMT),1553272811071,10.357583333333332,18,truth_value_judgements,all
6831,,6997,19,,true,Graduated High School,1553273432526,45,female,English ,true,false,5c1d27035c1e0b00016312b9,Some dresses have pockets.,true,2,Fri Mar 22 2019 16:40:11 GMT+0000 (GMT),1553272811071,10.357583333333332,19,truth_value_judgements,some
6831,,7182,19,,bizarre,Graduated High School,1553273432526,45,female,English ,true,false,5c1d27035c1e0b00016312b9,All couches have windows.,false,5,Fri Mar 22 2019 16:40:11 GMT+0000 (GMT),1553272811071,10.357583333333332,20,truth_value_judgements,all
6831,,7032,19,,true,Graduated High School,1553273432526,45,female,English ,true,false,5c1d27035c1e0b00016312b9,Most people know more than one language.,true,4,Fri Mar 22 2019 16:40:11 GMT+0000 (GMT),1553272811071,10.357583333333332,21,truth_value_judgements,most
6831,,8123,19,,implicature,Graduated High School,1553273432526,45,female,English ,true,false,5c1d27035c1e0b00016312b9,A human hand has two fingers.,false,2,Fri Mar 22 2019 16:40:11 GMT+0000 (GMT),1553272811071,10.357583333333332,22,truth_value_judgements,number
6831,,7556,19,,implicature,Graduated High School,1553273432526,45,female,English ,true,false,5c1d27035c1e0b00016312b9,Modern cars have three wheels.,false,1,Fri Mar 22 2019 16:40:11 GMT+0000 (GMT),1553272811071,10.357583333333332,23,truth_value_judgements,number
6831,,43479,19,,implicature,Graduated High School,1553273432526,45,female,English ,true,false,5c1d27035c1e0b00016312b9,Most horses are mammals.,true,2,Fri Mar 22 2019 16:40:11 GMT+0000 (GMT),1553272811071,10.357583333333332,24,truth_value_judgements,most
6831,,8151,19,,implicature,Graduated High School,1553273432526,45,female,English ,true,false,5c1d27035c1e0b00016312b9,Monkeys have three bones.,false,5,Fri Mar 22 2019 16:40:11 GMT+0000 (GMT),1553272811071,10.357583333333332,25,truth_value_judgements,number
6831,,6829,19,,true,Graduated High School,1553273432526,45,female,English ,true,false,5c1d27035c1e0b00016312b9,All robins have wings.,true,3,Fri Mar 22 2019 16:40:11 GMT+0000 (GMT),1553272811071,10.357583333333332,26,truth_value_judgements,all
6831,,17508,19,,bizarre,Graduated High School,1553273432526,45,female,English ,true,false,5c1d27035c1e0b00016312b9,All chairs tell time.,false,3,Fri Mar 22 2019 16:40:11 GMT+0000 (GMT),1553272811071,10.357583333333332,27,truth_value_judgements,all
6831,,13263,19,,implicature,Graduated High School,1553273432526,45,female,English ,true,false,5c1d27035c1e0b00016312b9,Some ants are insects.,true,4,Fri Mar 22 2019 16:40:11 GMT+0000 (GMT),1553272811071,10.357583333333332,28,truth_value_judgements,some
6831,,8731,19,,true,Graduated High School,1553273432526,45,female,English ,true,false,5c1d27035c1e0b00016312b9,All eagles are birds.,true,8,Fri Mar 22 2019 16:40:11 GMT+0000 (GMT),1553272811071,10.357583333333332,29,truth_value_judgements,all
6831,,13184,19,,bizarre,Graduated High School,1553273432526,45,female,English ,true,false,5c1d27035c1e0b00016312b9,The earth owns seven books.,false,5,Fri Mar 22 2019 16:40:11 GMT+0000 (GMT),1553272811071,10.357583333333332,30,truth_value_judgements,number
6831,,9488,19,,implicature,Graduated High School,1553273432526,45,female,English ,true,false,5c1d27035c1e0b00016312b9,Most elephants are mammals.,true,5,Fri Mar 22 2019 16:40:11 GMT+0000 (GMT),1553272811071,10.357583333333332,31,truth_value_judgements,most
6831,,19448,19,,bizarre,Graduated High School,1553273432526,45,female,English ,true,false,5c1d27035c1e0b00016312b9,The moon has two ears.,false,1,Fri Mar 22 2019 16:40:11 GMT+0000 (GMT),1553272811071,10.357583333333332,32,truth_value_judgements,number
6831,,7422,19,,bizarre,Graduated High School,1553273432526,45,female,English ,true,false,5c1d27035c1e0b00016312b9,Forests last three nights.,false,3,Fri Mar 22 2019 16:40:11 GMT+0000 (GMT),1553272811071,10.357583333333332,33,truth_value_judgements,number
6831,,6514,19,,bizarre,Graduated High School,1553273432526,45,female,English ,true,false,5c1d27035c1e0b00016312b9,Most elephants have glasses.,false,1,Fri Mar 22 2019 16:40:11 GMT+0000 (GMT),1553272811071,10.357583333333332,34,truth_value_judgements,most
6831,,6432,19,,true,Graduated High School,1553273432526,45,female,English ,true,false,5c1d27035c1e0b00016312b9,Most people know their parents.,true,1,Fri Mar 22 2019 16:40:11 GMT+0000 (GMT),1553272811071,10.357583333333332,35,truth_value_judgements,most
6831,,18880,19,,true,Graduated High School,1553273432526,45,female,English ,true,false,5c1d27035c1e0b00016312b9,Most days in a year are working days.,true,3,Fri Mar 22 2019 16:40:11 GMT+0000 (GMT),1553272811071,10.357583333333332,36,truth_value_judgements,most
6831,,12562,19,,bizarre,Graduated High School,1553273432526,45,female,English ,true,false,5c1d27035c1e0b00016312b9,Most sofas are friendly.,false,4,Fri Mar 22 2019 16:40:11 GMT+0000 (GMT),1553272811071,10.357583333333332,37,truth_value_judgements,most
6831,,8156,19,,bizarre,Graduated High School,1553273432526,45,female,English ,true,false,5c1d27035c1e0b00016312b9,Most chairs are hungry.,false,2,Fri Mar 22 2019 16:40:11 GMT+0000 (GMT),1553272811071,10.357583333333332,38,truth_value_judgements,most
6831,,6748,19,,true,Graduated High School,1553273432526,45,female,English ,true,false,5c1d27035c1e0b00016312b9,All beetles are insects.,true,10,Fri Mar 22 2019 16:40:11 GMT+0000 (GMT),1553272811071,10.357583333333332,39,truth_value_judgements,all
6831,,8390,19,,bizarre,Graduated High School,1553273432526,45,female,English ,true,false,5c1d27035c1e0b00016312b9,Some fruits have computers.,false,2,Fri Mar 22 2019 16:40:11 GMT+0000 (GMT),1553272811071,10.357583333333332,40,truth_value_judgements,some
6831,,10739,19,,bizarre,Graduated High School,1553273432526,45,female,English ,true,false,5c1d27035c1e0b00016312b9,Most tigers are literate.,true,5,Fri Mar 22 2019 16:40:11 GMT+0000 (GMT),1553272811071,10.357583333333332,41,truth_value_judgements,most
6831,,6951,19,,bizarre,Graduated High School,1553273432526,45,female,English ,true,false,5c1d27035c1e0b00016312b9,Some fish are made of leaves.,true,1,Fri Mar 22 2019 16:40:11 GMT+0000 (GMT),1553272811071,10.357583333333332,42,truth_value_judgements,some
6831,,12573,19,,bizarre,Graduated High School,1553273432526,45,female,English ,true,false,5c1d27035c1e0b00016312b9,Most motorcycles like music.,false,3,Fri Mar 22 2019 16:40:11 GMT+0000 (GMT),1553272811071,10.357583333333332,43,truth_value_judgements,most
6831,,7405,19,,implicature,Graduated High School,1553273432526,45,female,English ,true,false,5c1d27035c1e0b00016312b9,Some cats are mammals.,true,5,Fri Mar 22 2019 16:40:11 GMT+0000 (GMT),1553272811071,10.357583333333332,44,truth_value_judgements,some
6831,,8811,19,,bizarre,Graduated High School,1553273432526,45,female,English ,true,false,5c1d27035c1e0b00016312b9,Some children are made of feathers.,false,5,Fri Mar 22 2019 16:40:11 GMT+0000 (GMT),1553272811071,10.357583333333332,45,truth_value_judgements,some
6831,,9468,19,,true,Graduated High School,1553273432526,45,female,English ,true,false,5c1d27035c1e0b00016312b9,A week has seven days.,true,3,Fri Mar 22 2019 16:40:11 GMT+0000 (GMT),1553272811071,10.357583333333332,46,truth_value_judgements,number
6831,,7831,19,,true,Graduated High School,1553273432526,45,female,English ,true,false,5c1d27035c1e0b00016312b9,Some tools are made of wood..,true,3,Fri Mar 22 2019 16:40:11 GMT+0000 (GMT),1553272811071,10.357583333333332,47,truth_value_judgements,some
6831,,7724,19,,true,Graduated High School,1553273432526,45,female,English ,true,false,5c1d27035c1e0b00016312b9,Some children are blond.,true,4,Fri Mar 22 2019 16:40:11 GMT+0000 (GMT),1553272811071,10.357583333333332,48,truth_value_judgements,some
6831,,7496,19,,implicature,Graduated High School,1553273432526,45,female,English ,true,false,5c1d27035c1e0b00016312b9,Most pigeons are birds.,true,4,Fri Mar 22 2019 16:40:11 GMT+0000 (GMT),1553272811071,10.357583333333332,49,truth_value_judgements,most
6831,,7364,19,,implicature,Graduated High School,1553273432526,45,female,English ,true,false,5c1d27035c1e0b00016312b9,Some lizards are reptiles.,true,2,Fri Mar 22 2019 16:40:11 GMT+0000 (GMT),1553272811071,10.357583333333332,50,truth_value_judgements,some
6831,,6833,19,,true,Graduated High School,1553273432526,45,female,English ,true,false,5c1d27035c1e0b00016312b9,Cats have four legs.,true,4,Fri Mar 22 2019 16:40:11 GMT+0000 (GMT),1553272811071,10.357583333333332,51,truth_value_judgements,number
6831,,6241,19,,implicature,Graduated High School,1553273432526,45,female,English ,true,false,5c1d27035c1e0b00016312b9,Some owls are birds.,true,3,Fri Mar 22 2019 16:40:11 GMT+0000 (GMT),1553272811071,10.357583333333332,52,truth_value_judgements,some
6831,,7364,19,,implicature,Graduated High School,1553273432526,45,female,English ,true,false,5c1d27035c1e0b00016312b9,Most sharks are fish.,false,1,Fri Mar 22 2019 16:40:11 GMT+0000 (GMT),1553272811071,10.357583333333332,53,truth_value_judgements,most
6831,,9333,19,,bizarre,Graduated High School,1553273432526,45,female,English ,true,false,5c1d27035c1e0b00016312b9,All crayons have noses.,false,2,Fri Mar 22 2019 16:40:11 GMT+0000 (GMT),1553272811071,10.357583333333332,54,truth_value_judgements,all
6831,,7396,19,,true,Graduated High School,1553273432526,45,female,English ,true,false,5c1d27035c1e0b00016312b9,A normal motorcycle has two wheels.,true,1,Fri Mar 22 2019 16:40:11 GMT+0000 (GMT),1553272811071,10.357583333333332,55,truth_value_judgements,number
6831,,7641,19,,implicature,Graduated High School,1553273432526,45,female,English ,true,false,5c1d27035c1e0b00016312b9,Some trouts are fish.,true,1,Fri Mar 22 2019 16:40:11 GMT+0000 (GMT),1553272811071,10.357583333333332,56,truth_value_judgements,some
6831,,7954,19,,true,Graduated High School,1553273432526,45,female,English ,true,false,5c1d27035c1e0b00016312b9,All crocodiles are reptiles.,true,7,Fri Mar 22 2019 16:40:11 GMT+0000 (GMT),1553272811071,10.357583333333332,57,truth_value_judgements,all
6831,,7230,19,,true,Graduated High School,1553273432526,45,female,English ,true,false,5c1d27035c1e0b00016312b9,All elephants have trunks.,true,4,Fri Mar 22 2019 16:40:11 GMT+0000 (GMT),1553272811071,10.357583333333332,58,truth_value_judgements,all
6831,,8563,19,,implicature,Graduated High School,1553273432526,45,female,English ,true,false,5c1d27035c1e0b00016312b9,A year has 245 days.,false,4,Fri Mar 22 2019 16:40:11 GMT+0000 (GMT),1553272811071,10.357583333333332,59,truth_value_judgements,number
6831,,18714,19,,true,Graduated High School,1553273432526,45,female,English ,true,false,5c1d27035c1e0b00016312b9,Monkeys have five fingers on each hand.,true,2,Fri Mar 22 2019 16:40:11 GMT+0000 (GMT),1553272811071,10.357583333333332,60,truth_value_judgements,number
6830,,6229,33,,bizarre,Graduated College,1553273383740,45,female,English,true,false,54ebd25efdf99b02bf67d16a,All garages sing.,false,4,Fri Mar 22 2019 12:43:08 GMT-0400 (Eastern Daylight Time),1553272988040,6.595,1,truth_value_judgements,all
6830,,5957,33,,true,Graduated College,1553273383740,45,female,English,true,false,54ebd25efdf99b02bf67d16a,Humans have two eyes.,true,5,Fri Mar 22 2019 12:43:08 GMT-0400 (Eastern Daylight Time),1553272988040,6.595,2,truth_value_judgements,number
6830,,6052,33,,true,Graduated College,1553273383740,45,female,English,true,false,54ebd25efdf99b02bf67d16a,Most birds can fly.,true,2,Fri Mar 22 2019 12:43:08 GMT-0400 (Eastern Daylight Time),1553272988040,6.595,3,truth_value_judgements,most
6830,,7682,33,,bizarre,Graduated College,1553273383740,45,female,English,true,false,54ebd25efdf99b02bf67d16a,Forests last three nights.,false,3,Fri Mar 22 2019 12:43:08 GMT-0400 (Eastern Daylight Time),1553272988040,6.595,4,truth_value_judgements,number
6830,,6400,33,,true,Graduated College,1553273383740,45,female,English,true,false,54ebd25efdf99b02bf67d16a,A week has seven days.,true,3,Fri Mar 22 2019 12:43:08 GMT-0400 (Eastern Daylight Time),1553272988040,6.595,5,truth_value_judgements,number
6830,,6377,33,,true,Graduated College,1553273383740,45,female,English,true,false,54ebd25efdf99b02bf67d16a,All robins have wings.,true,3,Fri Mar 22 2019 12:43:08 GMT-0400 (Eastern Daylight Time),1553272988040,6.595,6,truth_value_judgements,all
6830,,6277,33,,bizarre,Graduated College,1553273383740,45,female,English,true,false,54ebd25efdf99b02bf67d16a,Most motorcycles like music.,false,3,Fri Mar 22 2019 12:43:08 GMT-0400 (Eastern Daylight Time),1553272988040,6.595,7,truth_value_judgements,most
6830,,6090,33,,implicature,Graduated College,1553273383740,45,female,English,true,false,54ebd25efdf99b02bf67d16a,A human hand has two fingers.,false,2,Fri Mar 22 2019 12:43:08 GMT-0400 (Eastern Daylight Time),1553272988040,6.595,8,truth_value_judgements,number
6830,,10294,33,,true,Graduated College,1553273383740,45,female,English,true,false,54ebd25efdf99b02bf67d16a,Some tools are made of wood..,true,3,Fri Mar 22 2019 12:43:08 GMT-0400 (Eastern Daylight Time),1553272988040,6.595,9,truth_value_judgements,some
6830,,5852,33,,bizarre,Graduated College,1553273383740,45,female,English,true,false,54ebd25efdf99b02bf67d16a,The moon has two ears.,false,1,Fri Mar 22 2019 12:43:08 GMT-0400 (Eastern Daylight Time),1553272988040,6.595,10,truth_value_judgements,number
6830,,5889,33,,true,Graduated College,1553273383740,45,female,English,true,false,54ebd25efdf99b02bf67d16a,Some flowers are yellow.,true,1,Fri Mar 22 2019 12:43:08 GMT-0400 (Eastern Daylight Time),1553272988040,6.595,11,truth_value_judgements,some
6830,,5892,33,,implicature,Graduated College,1553273383740,45,female,English,true,false,54ebd25efdf99b02bf67d16a,A year has 245 days.,false,4,Fri Mar 22 2019 12:43:08 GMT-0400 (Eastern Daylight Time),1553272988040,6.595,12,truth_value_judgements,number
6830,,5904,33,,true,Graduated College,1553273383740,45,female,English,true,false,54ebd25efdf99b02bf67d16a,Most horses are tame.,true,5,Fri Mar 22 2019 12:43:08 GMT-0400 (Eastern Daylight Time),1553272988040,6.595,13,truth_value_judgements,most
6830,,15216,33,,implicature,Graduated College,1553273383740,45,female,English,true,false,54ebd25efdf99b02bf67d16a,Most elephants are mammals.,false,5,Fri Mar 22 2019 12:43:08 GMT-0400 (Eastern Daylight Time),1553272988040,6.595,14,truth_value_judgements,most
6830,,5723,33,,bizarre,Graduated College,1553273383740,45,female,English,true,false,54ebd25efdf99b02bf67d16a,Some fruits have computers.,false,2,Fri Mar 22 2019 12:43:08 GMT-0400 (Eastern Daylight Time),1553272988040,6.595,15,truth_value_judgements,some
6830,,5729,33,,true,Graduated College,1553273383740,45,female,English,true,false,54ebd25efdf99b02bf67d16a,All eagles are birds.,true,8,Fri Mar 22 2019 12:43:08 GMT-0400 (Eastern Daylight Time),1553272988040,6.595,16,truth_value_judgements,all
6830,,7716,33,,implicature,Graduated College,1553273383740,45,female,English,true,false,54ebd25efdf99b02bf67d16a,Most snakes are reptiles.,false,3,Fri Mar 22 2019 12:43:08 GMT-0400 (Eastern Daylight Time),1553272988040,6.595,17,truth_value_judgements,most
6830,,5728,33,,implicature,Graduated College,1553273383740,45,female,English,true,false,54ebd25efdf99b02bf67d16a,Some lizards are reptiles.,false,2,Fri Mar 22 2019 12:43:08 GMT-0400 (Eastern Daylight Time),1553272988040,6.595,18,truth_value_judgements,some
6830,,5911,33,,bizarre,Graduated College,1553273383740,45,female,English,true,false,54ebd25efdf99b02bf67d16a,All chairs tell time.,false,3,Fri Mar 22 2019 12:43:08 GMT-0400 (Eastern Daylight Time),1553272988040,6.595,19,truth_value_judgements,all
6830,,5753,33,,true,Graduated College,1553273383740,45,female,English,true,false,54ebd25efdf99b02bf67d16a,All salmon are fish.,true,6,Fri Mar 22 2019 12:43:08 GMT-0400 (Eastern Daylight Time),1553272988040,6.595,20,truth_value_judgements,all
6830,,5687,33,,implicature,Graduated College,1553273383740,45,female,English,true,false,54ebd25efdf99b02bf67d16a,The universe contains three planets.,false,3,Fri Mar 22 2019 12:43:08 GMT-0400 (Eastern Daylight Time),1553272988040,6.595,21,truth_value_judgements,number
6830,,5645,33,,implicature,Graduated College,1553273383740,45,female,English,true,false,54ebd25efdf99b02bf67d16a,Most sharks are fish.,false,1,Fri Mar 22 2019 12:43:08 GMT-0400 (Eastern Daylight Time),1553272988040,6.595,22,truth_value_judgements,most
6830,,5801,33,,implicature,Graduated College,1553273383740,45,female,English,true,false,54ebd25efdf99b02bf67d16a,Some cats are mammals.,false,5,Fri Mar 22 2019 12:43:08 GMT-0400 (Eastern Daylight Time),1553272988040,6.595,23,truth_value_judgements,some
6830,,5714,33,,true,Graduated College,1553273383740,45,female,English,true,false,54ebd25efdf99b02bf67d16a,Some children are blond.,true,4,Fri Mar 22 2019 12:43:08 GMT-0400 (Eastern Daylight Time),1553272988040,6.595,24,truth_value_judgements,some
6830,,5837,33,,bizarre,Graduated College,1553273383740,45,female,English,true,false,54ebd25efdf99b02bf67d16a,All birds have telephones.,false,1,Fri Mar 22 2019 12:43:08 GMT-0400 (Eastern Daylight Time),1553272988040,6.595,25,truth_value_judgements,all
6830,,5751,33,,true,Graduated College,1553273383740,45,female,English,true,false,54ebd25efdf99b02bf67d16a,Cats have four legs.,true,4,Fri Mar 22 2019 12:43:08 GMT-0400 (Eastern Daylight Time),1553272988040,6.595,26,truth_value_judgements,number
6830,,6038,33,,true,Graduated College,1553273383740,45,female,English,true,false,54ebd25efdf99b02bf67d16a,Some dresses have pockets.,true,2,Fri Mar 22 2019 12:43:08 GMT-0400 (Eastern Daylight Time),1553272988040,6.595,27,truth_value_judgements,some
6830,,5736,33,,true,Graduated College,1553273383740,45,female,English,true,false,54ebd25efdf99b02bf67d16a,All beetles are insects.,true,10,Fri Mar 22 2019 12:43:08 GMT-0400 (Eastern Daylight Time),1553272988040,6.595,28,truth_value_judgements,all
6830,,5716,33,,implicature,Graduated College,1553273383740,45,female,English,true,false,54ebd25efdf99b02bf67d16a,Modern cars have three wheels.,false,1,Fri Mar 22 2019 12:43:08 GMT-0400 (Eastern Daylight Time),1553272988040,6.595,29,truth_value_judgements,number
6830,,5752,33,,implicature,Graduated College,1553273383740,45,female,English,true,false,54ebd25efdf99b02bf67d16a,Most horses are mammals.,false,2,Fri Mar 22 2019 12:43:08 GMT-0400 (Eastern Daylight Time),1553272988040,6.595,30,truth_value_judgements,most
6830,,6040,33,,true,Graduated College,1553273383740,45,female,English,true,false,54ebd25efdf99b02bf67d16a,Most people know more than one language.,false,4,Fri Mar 22 2019 12:43:08 GMT-0400 (Eastern Daylight Time),1553272988040,6.595,31,truth_value_judgements,most
6830,,5695,33,,bizarre,Graduated College,1553273383740,45,female,English,true,false,54ebd25efdf99b02bf67d16a,A week consists of five people.,false,4,Fri Mar 22 2019 12:43:08 GMT-0400 (Eastern Daylight Time),1553272988040,6.595,32,truth_value_judgements,number
6830,,5823,33,,bizarre,Graduated College,1553273383740,45,female,English,true,false,54ebd25efdf99b02bf67d16a,All couches have windows.,false,5,Fri Mar 22 2019 12:43:08 GMT-0400 (Eastern Daylight Time),1553272988040,6.595,33,truth_value_judgements,all
6830,,5724,33,,bizarre,Graduated College,1553273383740,45,female,English,true,false,54ebd25efdf99b02bf67d16a,Most tigers are literate.,false,5,Fri Mar 22 2019 12:43:08 GMT-0400 (Eastern Daylight Time),1553272988040,6.595,34,truth_value_judgements,most
6830,,5731,33,,true,Graduated College,1553273383740,45,female,English,true,false,54ebd25efdf99b02bf67d16a,Some drinks are made from chocolate.,true,5,Fri Mar 22 2019 12:43:08 GMT-0400 (Eastern Daylight Time),1553272988040,6.595,35,truth_value_judgements,some
6830,,5752,33,,bizarre,Graduated College,1553273383740,45,female,English,true,false,54ebd25efdf99b02bf67d16a,Some books are good to eat.,false,3,Fri Mar 22 2019 12:43:08 GMT-0400 (Eastern Daylight Time),1553272988040,6.595,36,truth_value_judgements,some
6830,,5753,33,,implicature,Graduated College,1553273383740,45,female,English,true,false,54ebd25efdf99b02bf67d16a,Monkeys have three bones.,false,5,Fri Mar 22 2019 12:43:08 GMT-0400 (Eastern Daylight Time),1553272988040,6.595,37,truth_value_judgements,number
6830,,5687,33,,implicature,Graduated College,1553273383740,45,female,English,true,false,54ebd25efdf99b02bf67d16a,Some trouts are fish.,false,1,Fri Mar 22 2019 12:43:08 GMT-0400 (Eastern Daylight Time),1553272988040,6.595,38,truth_value_judgements,some
6830,,7169,33,,true,Graduated College,1553273383740,45,female,English,true,false,54ebd25efdf99b02bf67d16a,All refrigerators have doors.,true,5,Fri Mar 22 2019 12:43:08 GMT-0400 (Eastern Daylight Time),1553272988040,6.595,39,truth_value_judgements,all
6830,,5821,33,,bizarre,Graduated College,1553273383740,45,female,English,true,false,54ebd25efdf99b02bf67d16a,Most sofas are friendly.,false,4,Fri Mar 22 2019 12:43:08 GMT-0400 (Eastern Daylight Time),1553272988040,6.595,40,truth_value_judgements,most
6830,,5670,33,,implicature,Graduated College,1553273383740,45,female,English,true,false,54ebd25efdf99b02bf67d16a,Some owls are birds.,false,3,Fri Mar 22 2019 12:43:08 GMT-0400 (Eastern Daylight Time),1553272988040,6.595,41,truth_value_judgements,some
6830,,6062,33,,true,Graduated College,1553273383740,45,female,English,true,false,54ebd25efdf99b02bf67d16a,All dogs are mammals.,true,9,Fri Mar 22 2019 12:43:08 GMT-0400 (Eastern Daylight Time),1553272988040,6.595,42,truth_value_judgements,all
6830,,5916,33,,implicature,Graduated College,1553273383740,45,female,English,true,false,54ebd25efdf99b02bf67d16a,Most pigeons are birds.,false,4,Fri Mar 22 2019 12:43:08 GMT-0400 (Eastern Daylight Time),1553272988040,6.595,43,truth_value_judgements,most
6830,,5661,33,,bizarre,Graduated College,1553273383740,45,female,English,true,false,54ebd25efdf99b02bf67d16a,Guitars have four legs.,false,2,Fri Mar 22 2019 12:43:08 GMT-0400 (Eastern Daylight Time),1553272988040,6.595,44,truth_value_judgements,number
6830,,5743,33,,true,Graduated College,1553273383740,45,female,English,true,false,54ebd25efdf99b02bf67d16a,Most days in a year are working days.,true,3,Fri Mar 22 2019 12:43:08 GMT-0400 (Eastern Daylight Time),1553272988040,6.595,45,truth_value_judgements,most
6830,,5714,33,,true,Graduated College,1553273383740,45,female,English,true,false,54ebd25efdf99b02bf67d16a,Most people know their parents.,true,1,Fri Mar 22 2019 12:43:08 GMT-0400 (Eastern Daylight Time),1553272988040,6.595,46,truth_value_judgements,most
6830,,5812,33,,bizarre,Graduated College,1553273383740,45,female,English,true,false,54ebd25efdf99b02bf67d16a,Most elephants have glasses.,false,1,Fri Mar 22 2019 12:43:08 GMT-0400 (Eastern Daylight Time),1553272988040,6.595,47,truth_value_judgements,most
6830,,5642,33,,bizarre,Graduated College,1553273383740,45,female,English,true,false,54ebd25efdf99b02bf67d16a,The earth owns seven books.,false,5,Fri Mar 22 2019 12:43:08 GMT-0400 (Eastern Daylight Time),1553272988040,6.595,48,truth_value_judgements,number
6830,,5805,33,,bizarre,Graduated College,1553273383740,45,female,English,true,false,54ebd25efdf99b02bf67d16a,All crayons have noses.,false,2,Fri Mar 22 2019 12:43:08 GMT-0400 (Eastern Daylight Time),1553272988040,6.595,49,truth_value_judgements,all
6830,,5753,33,,true,Graduated College,1553273383740,45,female,English,true,false,54ebd25efdf99b02bf67d16a,All crocodiles are reptiles.,true,7,Fri Mar 22 2019 12:43:08 GMT-0400 (Eastern Daylight Time),1553272988040,6.595,50,truth_value_judgements,all
6830,,5745,33,,true,Graduated College,1553273383740,45,female,English,true,false,54ebd25efdf99b02bf67d16a,A normal motorcycle has two wheels.,true,1,Fri Mar 22 2019 12:43:08 GMT-0400 (Eastern Daylight Time),1553272988040,6.595,51,truth_value_judgements,number
6830,,5720,33,,bizarre,Graduated College,1553273383740,45,female,English,true,false,54ebd25efdf99b02bf67d16a,Some stores are made of bubbles.,false,4,Fri Mar 22 2019 12:43:08 GMT-0400 (Eastern Daylight Time),1553272988040,6.595,52,truth_value_judgements,some
6830,,6691,33,,true,Graduated College,1553273383740,45,female,English,true,false,54ebd25efdf99b02bf67d16a,All elephants have trunks.,true,4,Fri Mar 22 2019 12:43:08 GMT-0400 (Eastern Daylight Time),1553272988040,6.595,53,truth_value_judgements,all
6830,,5867,33,,bizarre,Graduated College,1553273383740,45,female,English,true,false,54ebd25efdf99b02bf67d16a,Some fish are made of leaves.,false,1,Fri Mar 22 2019 12:43:08 GMT-0400 (Eastern Daylight Time),1553272988040,6.595,54,truth_value_judgements,some
6830,,5702,33,,bizarre,Graduated College,1553273383740,45,female,English,true,false,54ebd25efdf99b02bf67d16a,Most chairs are hungry.,false,2,Fri Mar 22 2019 12:43:08 GMT-0400 (Eastern Daylight Time),1553272988040,6.595,55,truth_value_judgements,most
6830,,5640,33,,implicature,Graduated College,1553273383740,45,female,English,true,false,54ebd25efdf99b02bf67d16a,Some ants are insects.,false,4,Fri Mar 22 2019 12:43:08 GMT-0400 (Eastern Daylight Time),1553272988040,6.595,56,truth_value_judgements,some
6830,,5678,33,,true,Graduated College,1553273383740,45,female,English,true,false,54ebd25efdf99b02bf67d16a,All hammers have a handle.,true,2,Fri Mar 22 2019 12:43:08 GMT-0400 (Eastern Daylight Time),1553272988040,6.595,57,truth_value_judgements,all
6830,,5654,33,,true,Graduated College,1553273383740,45,female,English,true,false,54ebd25efdf99b02bf67d16a,All books have pages.,true,1,Fri Mar 22 2019 12:43:08 GMT-0400 (Eastern Daylight Time),1553272988040,6.595,58,truth_value_judgements,all
6830,,5717,33,,bizarre,Graduated College,1553273383740,45,female,English,true,false,54ebd25efdf99b02bf67d16a,Some children are made of feathers.,false,5,Fri Mar 22 2019 12:43:08 GMT-0400 (Eastern Daylight Time),1553272988040,6.595,59,truth_value_judgements,some
6830,,5689,33,,true,Graduated College,1553273383740,45,female,English,true,false,54ebd25efdf99b02bf67d16a,Monkeys have five fingers on each hand.,true,2,Fri Mar 22 2019 12:43:08 GMT-0400 (Eastern Daylight Time),1553272988040,6.595,60,truth_value_judgements,number
6829,,6027,28,,true,Graduated High School,1553273175281,45,female,English,true,false,5afc41650da6840001b28720,Cats have four legs.,true,4,Sat Mar 23 2019 00:36:39 GMT+0800 (Australian Western Standard Time),1553272599605,9.5946,1,truth_value_judgements,number
6829,,5817,28,,true,Graduated High School,1553273175281,45,female,English,true,false,5afc41650da6840001b28720,Some children are blond.,true,4,Sat Mar 23 2019 00:36:39 GMT+0800 (Australian Western Standard Time),1553272599605,9.5946,2,truth_value_judgements,some
6829,,5773,28,,true,Graduated High School,1553273175281,45,female,English,true,false,5afc41650da6840001b28720,Most birds can fly.,true,2,Sat Mar 23 2019 00:36:39 GMT+0800 (Australian Western Standard Time),1553272599605,9.5946,3,truth_value_judgements,most
6829,,5486,28,,implicature,Graduated High School,1553273175281,45,female,English,true,false,5afc41650da6840001b28720,Most sharks are fish.,true,1,Sat Mar 23 2019 00:36:39 GMT+0800 (Australian Western Standard Time),1553272599605,9.5946,4,truth_value_judgements,most
6829,,5615,28,,implicature,Graduated High School,1553273175281,45,female,English,true,false,5afc41650da6840001b28720,Some cats are mammals.,true,5,Sat Mar 23 2019 00:36:39 GMT+0800 (Australian Western Standard Time),1553272599605,9.5946,5,truth_value_judgements,some
6829,,5357,28,,true,Graduated High School,1553273175281,45,female,English,true,false,5afc41650da6840001b28720,All salmon are fish.,true,6,Sat Mar 23 2019 00:36:39 GMT+0800 (Australian Western Standard Time),1553272599605,9.5946,6,truth_value_judgements,all
6829,,5126,28,,implicature,Graduated High School,1553273175281,45,female,English,true,false,5afc41650da6840001b28720,Some owls are birds.,true,3,Sat Mar 23 2019 00:36:39 GMT+0800 (Australian Western Standard Time),1553272599605,9.5946,7,truth_value_judgements,some
6829,,5685,28,,bizarre,Graduated High School,1553273175281,45,female,English,true,false,5afc41650da6840001b28720,Most tigers are literate.,false,5,Sat Mar 23 2019 00:36:39 GMT+0800 (Australian Western Standard Time),1553272599605,9.5946,8,truth_value_judgements,most
6829,,5232,28,,bizarre,Graduated High School,1553273175281,45,female,English,true,false,5afc41650da6840001b28720,All chairs tell time.,false,3,Sat Mar 23 2019 00:36:39 GMT+0800 (Australian Western Standard Time),1553272599605,9.5946,9,truth_value_judgements,all
6829,,5993,28,,implicature,Graduated High School,1553273175281,45,female,English,true,false,5afc41650da6840001b28720,A year has 245 days.,true,4,Sat Mar 23 2019 00:36:39 GMT+0800 (Australian Western Standard Time),1553272599605,9.5946,10,truth_value_judgements,number
6829,,5813,28,,bizarre,Graduated High School,1553273175281,45,female,English,true,false,5afc41650da6840001b28720,All crayons have noses.,false,2,Sat Mar 23 2019 00:36:39 GMT+0800 (Australian Western Standard Time),1553272599605,9.5946,11,truth_value_judgements,all
6829,,5726,28,,bizarre,Graduated High School,1553273175281,45,female,English,true,false,5afc41650da6840001b28720,Some stores are made of bubbles.,false,4,Sat Mar 23 2019 00:36:39 GMT+0800 (Australian Western Standard Time),1553272599605,9.5946,12,truth_value_judgements,some
6829,,5561,28,,bizarre,Graduated High School,1553273175281,45,female,English,true,false,5afc41650da6840001b28720,Some fish are made of leaves.,true,1,Sat Mar 23 2019 00:36:39 GMT+0800 (Australian Western Standard Time),1553272599605,9.5946,13,truth_value_judgements,some
6829,,5515,28,,bizarre,Graduated High School,1553273175281,45,female,English,true,false,5afc41650da6840001b28720,All couches have windows.,false,5,Sat Mar 23 2019 00:36:39 GMT+0800 (Australian Western Standard Time),1553272599605,9.5946,14,truth_value_judgements,all
6829,,5449,28,,bizarre,Graduated High School,1553273175281,45,female,English,true,false,5afc41650da6840001b28720,The moon has two ears.,false,1,Sat Mar 23 2019 00:36:39 GMT+0800 (Australian Western Standard Time),1553272599605,9.5946,15,truth_value_judgements,number
6829,,5812,28,,bizarre,Graduated High School,1553273175281,45,female,English,true,false,5afc41650da6840001b28720,Some fruits have computers.,false,2,Sat Mar 23 2019 00:36:39 GMT+0800 (Australian Western Standard Time),1553272599605,9.5946,16,truth_value_judgements,some
6829,,5543,28,,bizarre,Graduated High School,1553273175281,45,female,English,true,false,5afc41650da6840001b28720,Most motorcycles like music.,false,3,Sat Mar 23 2019 00:36:39 GMT+0800 (Australian Western Standard Time),1553272599605,9.5946,17,truth_value_judgements,most
6829,,5556,28,,true,Graduated High School,1553273175281,45,female,English,true,false,5afc41650da6840001b28720,All beetles are insects.,true,10,Sat Mar 23 2019 00:36:39 GMT+0800 (Australian Western Standard Time),1553272599605,9.5946,18,truth_value_judgements,all
6829,,5561,28,,true,Graduated High School,1553273175281,45,female,English,true,false,5afc41650da6840001b28720,A normal motorcycle has two wheels.,true,1,Sat Mar 23 2019 00:36:39 GMT+0800 (Australian Western Standard Time),1553272599605,9.5946,19,truth_value_judgements,number
6829,,5862,28,,true,Graduated High School,1553273175281,45,female,English,true,false,5afc41650da6840001b28720,All books have pages.,true,1,Sat Mar 23 2019 00:36:39 GMT+0800 (Australian Western Standard Time),1553272599605,9.5946,20,truth_value_judgements,all
6829,,5473,28,,true,Graduated High School,1553273175281,45,female,English,true,false,5afc41650da6840001b28720,A week has seven days.,true,3,Sat Mar 23 2019 00:36:39 GMT+0800 (Australian Western Standard Time),1553272599605,9.5946,21,truth_value_judgements,number
6829,,5429,28,,bizarre,Graduated High School,1553273175281,45,female,English,true,false,5afc41650da6840001b28720,All birds have telephones.,false,1,Sat Mar 23 2019 00:36:39 GMT+0800 (Australian Western Standard Time),1553272599605,9.5946,22,truth_value_judgements,all
6829,,10276,28,,bizarre,Graduated High School,1553273175281,45,female,English,true,false,5afc41650da6840001b28720,Forests last three nights.,true,3,Sat Mar 23 2019 00:36:39 GMT+0800 (Australian Western Standard Time),1553272599605,9.5946,23,truth_value_judgements,number
6829,,5447,28,,bizarre,Graduated High School,1553273175281,45,female,English,true,false,5afc41650da6840001b28720,Most sofas are friendly.,true,4,Sat Mar 23 2019 00:36:39 GMT+0800 (Australian Western Standard Time),1553272599605,9.5946,24,truth_value_judgements,most
6829,,6607,28,,implicature,Graduated High School,1553273175281,45,female,English,true,false,5afc41650da6840001b28720,The universe contains three planets.,true,3,Sat Mar 23 2019 00:36:39 GMT+0800 (Australian Western Standard Time),1553272599605,9.5946,25,truth_value_judgements,number
6829,,5499,28,,true,Graduated High School,1553273175281,45,female,English,true,false,5afc41650da6840001b28720,Some tools are made of wood..,true,3,Sat Mar 23 2019 00:36:39 GMT+0800 (Australian Western Standard Time),1553272599605,9.5946,26,truth_value_judgements,some
6829,,5855,28,,true,Graduated High School,1553273175281,45,female,English,true,false,5afc41650da6840001b28720,Most horses are tame.,false,5,Sat Mar 23 2019 00:36:39 GMT+0800 (Australian Western Standard Time),1553272599605,9.5946,27,truth_value_judgements,most
6829,,5675,28,,bizarre,Graduated High School,1553273175281,45,female,English,true,false,5afc41650da6840001b28720,The earth owns seven books.,false,5,Sat Mar 23 2019 00:36:39 GMT+0800 (Australian Western Standard Time),1553272599605,9.5946,28,truth_value_judgements,number
6829,,5973,28,,true,Graduated High School,1553273175281,45,female,English,true,false,5afc41650da6840001b28720,All eagles are birds.,false,8,Sat Mar 23 2019 00:36:39 GMT+0800 (Australian Western Standard Time),1553272599605,9.5946,29,truth_value_judgements,all
6829,,6026,28,,bizarre,Graduated High School,1553273175281,45,female,English,true,false,5afc41650da6840001b28720,Guitars have four legs.,false,2,Sat Mar 23 2019 00:36:39 GMT+0800 (Australian Western Standard Time),1553272599605,9.5946,30,truth_value_judgements,number
6829,,5742,28,,implicature,Graduated High School,1553273175281,45,female,English,true,false,5afc41650da6840001b28720,Most elephants are mammals.,true,5,Sat Mar 23 2019 00:36:39 GMT+0800 (Australian Western Standard Time),1553272599605,9.5946,31,truth_value_judgements,most
6829,,5645,28,,implicature,Graduated High School,1553273175281,45,female,English,true,false,5afc41650da6840001b28720,Some trouts are fish.,true,1,Sat Mar 23 2019 00:36:39 GMT+0800 (Australian Western Standard Time),1553272599605,9.5946,32,truth_value_judgements,some
6829,,5429,28,,true,Graduated High School,1553273175281,45,female,English,true,false,5afc41650da6840001b28720,All dogs are mammals.,true,9,Sat Mar 23 2019 00:36:39 GMT+0800 (Australian Western Standard Time),1553272599605,9.5946,33,truth_value_judgements,all
6829,,5623,28,,true,Graduated High School,1553273175281,45,female,English,true,false,5afc41650da6840001b28720,Some drinks are made from chocolate.,true,5,Sat Mar 23 2019 00:36:39 GMT+0800 (Australian Western Standard Time),1553272599605,9.5946,34,truth_value_judgements,some
6829,,5425,28,,implicature,Graduated High School,1553273175281,45,female,English,true,false,5afc41650da6840001b28720,Some lizards are reptiles.,true,2,Sat Mar 23 2019 00:36:39 GMT+0800 (Australian Western Standard Time),1553272599605,9.5946,35,truth_value_judgements,some
6829,,5473,28,,bizarre,Graduated High School,1553273175281,45,female,English,true,false,5afc41650da6840001b28720,Most chairs are hungry.,false,2,Sat Mar 23 2019 00:36:39 GMT+0800 (Australian Western Standard Time),1553272599605,9.5946,36,truth_value_judgements,most
6829,,5776,28,,true,Graduated High School,1553273175281,45,female,English,true,false,5afc41650da6840001b28720,Humans have two eyes.,true,5,Sat Mar 23 2019 00:36:39 GMT+0800 (Australian Western Standard Time),1553272599605,9.5946,37,truth_value_judgements,number
6829,,5516,28,,implicature,Graduated High School,1553273175281,45,female,English,true,false,5afc41650da6840001b28720,Some ants are insects.,true,4,Sat Mar 23 2019 00:36:39 GMT+0800 (Australian Western Standard Time),1553272599605,9.5946,38,truth_value_judgements,some
6829,,5538,28,,true,Graduated High School,1553273175281,45,female,English,true,false,5afc41650da6840001b28720,All elephants have trunks.,true,4,Sat Mar 23 2019 00:36:39 GMT+0800 (Australian Western Standard Time),1553272599605,9.5946,39,truth_value_judgements,all
6829,,5942,28,,implicature,Graduated High School,1553273175281,45,female,English,true,false,5afc41650da6840001b28720,Modern cars have three wheels.,true,1,Sat Mar 23 2019 00:36:39 GMT+0800 (Australian Western Standard Time),1553272599605,9.5946,40,truth_value_judgements,number
6829,,5524,28,,true,Graduated High School,1553273175281,45,female,English,true,false,5afc41650da6840001b28720,Most days in a year are working days.,true,3,Sat Mar 23 2019 00:36:39 GMT+0800 (Australian Western Standard Time),1553272599605,9.5946,41,truth_value_judgements,most
6829,,5694,28,,true,Graduated High School,1553273175281,45,female,English,true,false,5afc41650da6840001b28720,Some flowers are yellow.,true,1,Sat Mar 23 2019 00:36:39 GMT+0800 (Australian Western Standard Time),1553272599605,9.5946,42,truth_value_judgements,some
6829,,5494,28,,implicature,Graduated High School,1553273175281,45,female,English,true,false,5afc41650da6840001b28720,Most snakes are reptiles.,true,3,Sat Mar 23 2019 00:36:39 GMT+0800 (Australian Western Standard Time),1553272599605,9.5946,43,truth_value_judgements,most
6829,,5593,28,,implicature,Graduated High School,1553273175281,45,female,English,true,false,5afc41650da6840001b28720,Most horses are mammals.,true,2,Sat Mar 23 2019 00:36:39 GMT+0800 (Australian Western Standard Time),1553272599605,9.5946,44,truth_value_judgements,most
6829,,5551,28,,true,Graduated High School,1553273175281,45,female,English,true,false,5afc41650da6840001b28720,Most people know their parents.,true,1,Sat Mar 23 2019 00:36:39 GMT+0800 (Australian Western Standard Time),1553272599605,9.5946,45,truth_value_judgements,most
6829,,7758,28,,implicature,Graduated High School,1553273175281,45,female,English,true,false,5afc41650da6840001b28720,A human hand has two fingers.,true,2,Sat Mar 23 2019 00:36:39 GMT+0800 (Australian Western Standard Time),1553272599605,9.5946,46,truth_value_judgements,number
6829,,5784,28,,bizarre,Graduated High School,1553273175281,45,female,English,true,false,5afc41650da6840001b28720,Some children are made of feathers.,false,5,Sat Mar 23 2019 00:36:39 GMT+0800 (Australian Western Standard Time),1553272599605,9.5946,47,truth_value_judgements,some
6829,,5797,28,,true,Graduated High School,1553273175281,45,female,English,true,false,5afc41650da6840001b28720,All hammers have a handle.,true,2,Sat Mar 23 2019 00:36:39 GMT+0800 (Australian Western Standard Time),1553272599605,9.5946,48,truth_value_judgements,all
6829,,5509,28,,bizarre,Graduated High School,1553273175281,45,female,English,true,false,5afc41650da6840001b28720,A week consists of five people.,false,4,Sat Mar 23 2019 00:36:39 GMT+0800 (Australian Western Standard Time),1553272599605,9.5946,49,truth_value_judgements,number
6829,,6040,28,,true,Graduated High School,1553273175281,45,female,English,true,false,5afc41650da6840001b28720,All crocodiles are reptiles.,true,7,Sat Mar 23 2019 00:36:39 GMT+0800 (Australian Western Standard Time),1553272599605,9.5946,50,truth_value_judgements,all
6829,,5502,28,,bizarre,Graduated High School,1553273175281,45,female,English,true,false,5afc41650da6840001b28720,Some books are good to eat.,false,3,Sat Mar 23 2019 00:36:39 GMT+0800 (Australian Western Standard Time),1553272599605,9.5946,51,truth_value_judgements,some
6829,,5542,28,,implicature,Graduated High School,1553273175281,45,female,English,true,false,5afc41650da6840001b28720,Monkeys have three bones.,true,5,Sat Mar 23 2019 00:36:39 GMT+0800 (Australian Western Standard Time),1553272599605,9.5946,52,truth_value_judgements,number
6829,,5500,28,,true,Graduated High School,1553273175281,45,female,English,true,false,5afc41650da6840001b28720,Monkeys have five fingers on each hand.,true,2,Sat Mar 23 2019 00:36:39 GMT+0800 (Australian Western Standard Time),1553272599605,9.5946,53,truth_value_judgements,number
6829,,5853,28,,true,Graduated High School,1553273175281,45,female,English,true,false,5afc41650da6840001b28720,Some dresses have pockets.,true,2,Sat Mar 23 2019 00:36:39 GMT+0800 (Australian Western Standard Time),1553272599605,9.5946,54,truth_value_judgements,some
6829,,5746,28,,bizarre,Graduated High School,1553273175281,45,female,English,true,false,5afc41650da6840001b28720,All garages sing.,false,4,Sat Mar 23 2019 00:36:39 GMT+0800 (Australian Western Standard Time),1553272599605,9.5946,55,truth_value_judgements,all
6829,,5445,28,,implicature,Graduated High School,1553273175281,45,female,English,true,false,5afc41650da6840001b28720,Most pigeons are birds.,true,4,Sat Mar 23 2019 00:36:39 GMT+0800 (Australian Western Standard Time),1553272599605,9.5946,56,truth_value_judgements,most
6829,,5495,28,,true,Graduated High School,1553273175281,45,female,English,true,false,5afc41650da6840001b28720,All refrigerators have doors.,true,5,Sat Mar 23 2019 00:36:39 GMT+0800 (Australian Western Standard Time),1553272599605,9.5946,57,truth_value_judgements,all
6829,,6881,28,,true,Graduated High School,1553273175281,45,female,English,true,false,5afc41650da6840001b28720,All robins have wings.,false,3,Sat Mar 23 2019 00:36:39 GMT+0800 (Australian Western Standard Time),1553272599605,9.5946,58,truth_value_judgements,all
6829,,5534,28,,bizarre,Graduated High School,1553273175281,45,female,English,true,false,5afc41650da6840001b28720,Most elephants have glasses.,false,1,Sat Mar 23 2019 00:36:39 GMT+0800 (Australian Western Standard Time),1553272599605,9.5946,59,truth_value_judgements,most
6829,,6389,28,,true,Graduated High School,1553273175281,45,female,English,true,false,5afc41650da6840001b28720,Most people know more than one language.,false,4,Sat Mar 23 2019 00:36:39 GMT+0800 (Australian Western Standard Time),1553272599605,9.5946,60,truth_value_judgements,most
6828,,8665,23,,true,Higher Degree,1553273139220,45,female,English,true,false,598b58874972b300010745d7,All salmon are fish.,true,6,Fri Mar 22 2019 16:38:41 GMT+0000 (Greenwich Mean Time),1553272721481,6.962316666666666,1,truth_value_judgements,all
6828,,7174,23,,true,Higher Degree,1553273139220,45,female,English,true,false,598b58874972b300010745d7,Most days in a year are working days.,true,3,Fri Mar 22 2019 16:38:41 GMT+0000 (Greenwich Mean Time),1553272721481,6.962316666666666,2,truth_value_judgements,most
6828,,5504,23,,implicature,Higher Degree,1553273139220,45,female,English,true,false,598b58874972b300010745d7,The universe contains three planets.,false,3,Fri Mar 22 2019 16:38:41 GMT+0000 (Greenwich Mean Time),1553272721481,6.962316666666666,3,truth_value_judgements,number
6828,,6081,23,,bizarre,Higher Degree,1553273139220,45,female,English,true,false,598b58874972b300010745d7,All chairs tell time.,false,3,Fri Mar 22 2019 16:38:41 GMT+0000 (Greenwich Mean Time),1553272721481,6.962316666666666,4,truth_value_judgements,all
6828,,7595,23,,bizarre,Higher Degree,1553273139220,45,female,English,true,false,598b58874972b300010745d7,Some fruits have computers.,true,2,Fri Mar 22 2019 16:38:41 GMT+0000 (Greenwich Mean Time),1553272721481,6.962316666666666,5,truth_value_judgements,some
6828,,5732,23,,true,Higher Degree,1553273139220,45,female,English,true,false,598b58874972b300010745d7,A week has seven days.,true,3,Fri Mar 22 2019 16:38:41 GMT+0000 (Greenwich Mean Time),1553272721481,6.962316666666666,6,truth_value_judgements,number
6828,,6895,23,,true,Higher Degree,1553273139220,45,female,English,true,false,598b58874972b300010745d7,All refrigerators have doors.,true,5,Fri Mar 22 2019 16:38:41 GMT+0000 (Greenwich Mean Time),1553272721481,6.962316666666666,7,truth_value_judgements,all
6828,,5893,23,,bizarre,Higher Degree,1553273139220,45,female,English,true,false,598b58874972b300010745d7,All couches have windows.,false,5,Fri Mar 22 2019 16:38:41 GMT+0000 (Greenwich Mean Time),1553272721481,6.962316666666666,8,truth_value_judgements,all
6828,,5905,23,,implicature,Higher Degree,1553273139220,45,female,English,true,false,598b58874972b300010745d7,Some cats are mammals.,true,5,Fri Mar 22 2019 16:38:41 GMT+0000 (Greenwich Mean Time),1553272721481,6.962316666666666,9,truth_value_judgements,some
6828,,5389,23,,true,Higher Degree,1553273139220,45,female,English,true,false,598b58874972b300010745d7,All elephants have trunks.,true,4,Fri Mar 22 2019 16:38:41 GMT+0000 (Greenwich Mean Time),1553272721481,6.962316666666666,10,truth_value_judgements,all
6828,,6721,23,,true,Higher Degree,1553273139220,45,female,English,true,false,598b58874972b300010745d7,Monkeys have five fingers on each hand.,false,2,Fri Mar 22 2019 16:38:41 GMT+0000 (Greenwich Mean Time),1553272721481,6.962316666666666,11,truth_value_judgements,number
6828,,11304,23,,bizarre,Higher Degree,1553273139220,45,female,English,true,false,598b58874972b300010745d7,Most sofas are friendly.,false,4,Fri Mar 22 2019 16:38:41 GMT+0000 (Greenwich Mean Time),1553272721481,6.962316666666666,12,truth_value_judgements,most
6828,,5578,23,,true,Higher Degree,1553273139220,45,female,English,true,false,598b58874972b300010745d7,All robins have wings.,true,3,Fri Mar 22 2019 16:38:41 GMT+0000 (Greenwich Mean Time),1553272721481,6.962316666666666,13,truth_value_judgements,all
6828,,5373,23,,true,Higher Degree,1553273139220,45,female,English,true,false,598b58874972b300010745d7,Humans have two eyes.,true,5,Fri Mar 22 2019 16:38:41 GMT+0000 (Greenwich Mean Time),1553272721481,6.962316666666666,14,truth_value_judgements,number
6828,,10806,23,,true,Higher Degree,1553273139220,45,female,English,true,false,598b58874972b300010745d7,All crocodiles are reptiles.,false,7,Fri Mar 22 2019 16:38:41 GMT+0000 (Greenwich Mean Time),1553272721481,6.962316666666666,15,truth_value_judgements,all
6828,,5535,23,,true,Higher Degree,1553273139220,45,female,English,true,false,598b58874972b300010745d7,Most people know more than one language.,false,4,Fri Mar 22 2019 16:38:41 GMT+0000 (Greenwich Mean Time),1553272721481,6.962316666666666,16,truth_value_judgements,most
6828,,7277,23,,bizarre,Higher Degree,1553273139220,45,female,English,true,false,598b58874972b300010745d7,The moon has two ears.,false,1,Fri Mar 22 2019 16:38:41 GMT+0000 (Greenwich Mean Time),1553272721481,6.962316666666666,17,truth_value_judgements,number
6828,,5460,23,,bizarre,Higher Degree,1553273139220,45,female,English,true,false,598b58874972b300010745d7,Some children are made of feathers.,true,5,Fri Mar 22 2019 16:38:41 GMT+0000 (Greenwich Mean Time),1553272721481,6.962316666666666,18,truth_value_judgements,some
6828,,5733,23,,implicature,Higher Degree,1553273139220,45,female,English,true,false,598b58874972b300010745d7,Some lizards are reptiles.,true,2,Fri Mar 22 2019 16:38:41 GMT+0000 (Greenwich Mean Time),1553272721481,6.962316666666666,19,truth_value_judgements,some
6828,,6231,23,,true,Higher Degree,1553273139220,45,female,English,true,false,598b58874972b300010745d7,All books have pages.,true,1,Fri Mar 22 2019 16:38:41 GMT+0000 (Greenwich Mean Time),1553272721481,6.962316666666666,20,truth_value_judgements,all
6828,,7465,23,,implicature,Higher Degree,1553273139220,45,female,English,true,false,598b58874972b300010745d7,Most sharks are fish.,true,1,Fri Mar 22 2019 16:38:41 GMT+0000 (Greenwich Mean Time),1553272721481,6.962316666666666,21,truth_value_judgements,most
6828,,5461,23,,true,Higher Degree,1553273139220,45,female,English,true,false,598b58874972b300010745d7,All dogs are mammals.,true,9,Fri Mar 22 2019 16:38:41 GMT+0000 (Greenwich Mean Time),1553272721481,6.962316666666666,22,truth_value_judgements,all
6828,,5436,23,,bizarre,Higher Degree,1553273139220,45,female,English,true,false,598b58874972b300010745d7,All birds have telephones.,false,1,Fri Mar 22 2019 16:38:41 GMT+0000 (Greenwich Mean Time),1553272721481,6.962316666666666,23,truth_value_judgements,all
6828,,5761,23,,implicature,Higher Degree,1553273139220,45,female,English,true,false,598b58874972b300010745d7,Monkeys have three bones.,false,5,Fri Mar 22 2019 16:38:41 GMT+0000 (Greenwich Mean Time),1553272721481,6.962316666666666,24,truth_value_judgements,number
6828,,10822,23,,true,Higher Degree,1553273139220,45,female,English,true,false,598b58874972b300010745d7,Most people know their parents.,true,1,Fri Mar 22 2019 16:38:41 GMT+0000 (Greenwich Mean Time),1553272721481,6.962316666666666,25,truth_value_judgements,most
6828,,5519,23,,bizarre,Higher Degree,1553273139220,45,female,English,true,false,598b58874972b300010745d7,Most tigers are literate.,false,5,Fri Mar 22 2019 16:38:41 GMT+0000 (Greenwich Mean Time),1553272721481,6.962316666666666,26,truth_value_judgements,most
6828,,5551,23,,true,Higher Degree,1553273139220,45,female,English,true,false,598b58874972b300010745d7,Some flowers are yellow.,true,1,Fri Mar 22 2019 16:38:41 GMT+0000 (Greenwich Mean Time),1553272721481,6.962316666666666,27,truth_value_judgements,some
6828,,5424,23,,true,Higher Degree,1553273139220,45,female,English,true,false,598b58874972b300010745d7,Some children are blond.,true,4,Fri Mar 22 2019 16:38:41 GMT+0000 (Greenwich Mean Time),1553272721481,6.962316666666666,28,truth_value_judgements,some
6828,,7657,23,,bizarre,Higher Degree,1553273139220,45,female,English,true,false,598b58874972b300010745d7,Guitars have four legs.,false,2,Fri Mar 22 2019 16:38:41 GMT+0000 (Greenwich Mean Time),1553272721481,6.962316666666666,29,truth_value_judgements,number
6828,,14983,23,,bizarre,Higher Degree,1553273139220,45,female,English,true,false,598b58874972b300010745d7,Forests last three nights.,false,3,Fri Mar 22 2019 16:38:41 GMT+0000 (Greenwich Mean Time),1553272721481,6.962316666666666,30,truth_value_judgements,number
6828,,5951,23,,implicature,Higher Degree,1553273139220,45,female,English,true,false,598b58874972b300010745d7,Some owls are birds.,true,3,Fri Mar 22 2019 16:38:41 GMT+0000 (Greenwich Mean Time),1553272721481,6.962316666666666,31,truth_value_judgements,some
6828,,6923,23,,bizarre,Higher Degree,1553273139220,45,female,English,true,false,598b58874972b300010745d7,The earth owns seven books.,false,5,Fri Mar 22 2019 16:38:41 GMT+0000 (Greenwich Mean Time),1553272721481,6.962316666666666,32,truth_value_judgements,number
6828,,5886,23,,bizarre,Higher Degree,1553273139220,45,female,English,true,false,598b58874972b300010745d7,Some books are good to eat.,true,3,Fri Mar 22 2019 16:38:41 GMT+0000 (Greenwich Mean Time),1553272721481,6.962316666666666,33,truth_value_judgements,some
6828,,5407,23,,implicature,Higher Degree,1553273139220,45,female,English,true,false,598b58874972b300010745d7,Most pigeons are birds.,true,4,Fri Mar 22 2019 16:38:41 GMT+0000 (Greenwich Mean Time),1553272721481,6.962316666666666,34,truth_value_judgements,most
6828,,7243,23,,bizarre,Higher Degree,1553273139220,45,female,English,true,false,598b58874972b300010745d7,All garages sing.,false,4,Fri Mar 22 2019 16:38:41 GMT+0000 (Greenwich Mean Time),1553272721481,6.962316666666666,35,truth_value_judgements,all
6828,,5600,23,,bizarre,Higher Degree,1553273139220,45,female,English,true,false,598b58874972b300010745d7,Some fish are made of leaves.,false,1,Fri Mar 22 2019 16:38:41 GMT+0000 (Greenwich Mean Time),1553272721481,6.962316666666666,36,truth_value_judgements,some
